File: 02_normalization/deci_norm.csv
Cement (component 1)(kg in a m^3 mixture),Blast Furnace Slag (component 2)(kg in a m^3 mixture),Fly Ash (component 3)(kg in a m^3 mixture),Water  (component 4)(kg in a m^3 mixture),Superplasticizer (component 5)(kg in a m^3 mixture),Coarse Aggregate  (component 6)(kg in a m^3 mixture),Fine Aggregate (component 7)(kg in a m^3 mixture),Age (day),"Concrete compressive strength(MPa, megapascals) "
0.54,0.0,0.0,0.162,0.025,0.104,0.676,0.028,79.9861
0.3325,0.1425,0.0,0.228,0.0,0.0932,0.594,0.27,40.2695
0.1986,0.1324,0.0,0.192,0.0,0.09784,0.8255,0.36,44.2961
0.38,0.095,0.0,0.228,0.0,0.0932,0.594,0.365,43.6983
0.266,0.114,0.0,0.228,0.0,0.0932,0.67,0.028,45.8543
0.1986,0.1324,0.0,0.192,0.0,0.09784,0.8255,0.09,38.0742
0.4275,0.0475,0.0,0.228,0.0,0.0932,0.594,0.27,43.013
0.304,0.076,0.0,0.228,0.0,0.0932,0.67,0.028,47.8138
0.1396,0.2094,0.0,0.192,0.0,0.1047,0.8069,0.09,39.358
0.38,0.095,0.0,0.228,0.0,0.0932,0.594,0.09,40.5633
0.4275,0.0475,0.0,0.228,0.0,0.0932,0.594,0.18,41.8367
0.1396,0.2094,0.0,0.192,0.0,0.1047,0.8069,0.003,8.06342
0.38,0.0,0.0,0.228,0.0,0.0932,0.67,0.365,52.5167
0.38,0.095,0.0,0.228,0.0,0.0932,0.594,0.27,41.1514
0.4275,0.0475,0.0,0.228,0.0,0.0932,0.594,0.028,37.4275
0.304,0.076,0.0,0.228,0.0,0.0932,0.67,0.365,55.2601
0.1986,0.1324,0.0,0.192,0.0,0.09784,0.8255,0.18,41.7195
0.19,0.19,0.0,0.228,0.0,0.0932,0.67,0.365,53.6923
0.2375,0.2375,0.0,0.228,0.0,0.0932,0.594,0.028,30.0798
0.475,0.0,0.0,0.228,0.0,0.0932,0.594,0.09,42.229
0.342,0.038,0.0,0.228,0.0,0.0932,0.67,0.09,50.4593
0.2375,0.2375,0.0,0.228,0.0,0.0932,0.594,0.365,38.9954
0.4275,0.0475,0.0,0.228,0.0,0.0932,0.594,0.09,41.543
0.349,0.0,0.0,0.192,0.0,0.1047,0.8069,0.003,15.0492
0.2375,0.2375,0.0,0.228,0.0,0.0932,0.594,0.007,26.258
0.3325,0.1425,0.0,0.228,0.0,0.0932,0.594,0.18,39.7793
0.2375,0.2375,0.0,0.228,0.0,0.0932,0.594,0.09,33.1169
0.1396,0.2094,0.0,0.192,0.0,0.1047,0.8069,0.007,14.5893
0.475,0.0,0.0,0.228,0.0,0.0932,0.594,0.365,41.9346
0.304,0.076,0.0,0.228,0.0,0.0932,0.67,0.18,50.9488
0.304,0.076,0.0,0.228,0.0,0.0932,0.67,0.27,54.3783
0.31,0.0,0.0,0.192,0.0,0.0971,0.8506,0.003,9.8664
0.266,0.114,0.0,0.228,0.0,0.0932,0.67,0.18,48.6956
0.1396,0.2094,0.0,0.192,0.0,0.1047,0.8069,0.36,44.698
0.19,0.19,0.0,0.228,0.0,0.0932,0.67,0.028,40.857
0.374,0.1892,0.0,0.1701,0.101,0.09261,0.7567,0.003,34.398
0.425,0.1063,0.0,0.1535,0.165,0.08521,0.8871,0.003,33.3982
0.375,0.0938,0.0,0.1266,0.234,0.08521,0.9926,0.003,28.9994
0.469,0.1172,0.0,0.1378,0.322,0.08521,0.8405,0.003,40.1965
0.3886,0.0971,0.0,0.1579,0.121,0.08521,0.9257,0.003,28.0961
0.425,0.1063,0.0,0.1535,0.165,0.08521,0.8871,0.003,33.3982
0.4018,0.0947,0.0,0.1474,0.114,0.09468,0.8521,0.003,41.0997
0.3237,0.2828,0.0,0.1838,0.103,0.09427,0.6599,0.003,28.2961
0.3626,0.189,0.0,0.1649,0.116,0.09447,0.7558,0.003,35.3012
0.3626,0.189,0.0,0.1649,0.116,0.09447,0.7558,0.003,35.3012
0.3899,0.189,0.0,0.1459,0.22,0.09447,0.7558,0.003,40.5963
0.3379,0.189,0.0,0.1749,0.095,0.09447,0.7558,0.003,24.0972
0.3133,0.2622,0.0,0.1755,0.086,0.10469,0.6118,0.007,42.7958
0.425,0.1063,0.0,0.1514,0.186,0.0936,0.8037,0.007,46.8016
0.475,0.1188,0.0,0.1811,0.089,0.08521,0.7815,0.007,55.5993
0.425,0.1063,0.0,0.1535,0.165,0.08521,0.8871,0.007,49.201
0.5313,0.0,0.0,0.1418,0.282,0.08521,0.8937,0.007,46.8982
0.3188,0.2125,0.0,0.1557,0.143,0.08521,0.8804,0.007,33.3982
0.3626,0.189,0.0,0.1649,0.116,0.09447,0.7558,0.007,55.8958
0.3795,0.1512,0.0,0.1539,0.159,0.11343,0.605,0.007,47.0981
0.2863,0.2009,0.0,0.1447,0.112,0.10046,0.8037,0.007,37.997
0.439,0.177,0.0,0.186,0.111,0.08849,0.7079,0.007,56.0958
0.3626,0.189,0.0,0.1649,0.116,0.09447,0.7558,0.007,22.8975
0.374,0.1892,0.0,0.1701,0.101,0.09261,0.7567,0.028,61.0945
0.425,0.1063,0.0,0.1535,0.165,0.08521,0.8871,0.028,60.2947
0.375,0.0938,0.0,0.1266,0.234,0.08521,0.9926,0.028,56.6956
0.469,0.1172,0.0,0.1378,0.322,0.08521,0.8405,0.028,66.8999
0.3886,0.0971,0.0,0.1579,0.121,0.08521,0.9257,0.028,50.6972
0.425,0.1063,0.0,0.1535,0.165,0.08521,0.8871,0.028,60.2947
0.4018,0.0947,0.0,0.1474,0.114,0.09468,0.8521,0.028,68.4994
0.3237,0.2828,0.0,0.1838,0.103,0.09427,0.6599,0.028,74.6978
0.3626,0.189,0.0,0.1649,0.116,0.09447,0.7558,0.028,71.2987
0.3626,0.189,0.0,0.1649,0.116,0.09447,0.7558,0.028,71.2987
0.3899,0.189,0.0,0.1459,0.22,0.09447,0.7558,0.028,74.4979
0.3379,0.189,0.0,0.1749,0.095,0.09447,0.7558,0.028,49.8974
0.3133,0.2622,0.0,0.1755,0.086,0.10469,0.6118,0.056,64.9004
0.425,0.1063,0.0,0.1514,0.186,0.0936,0.8037,0.056,64.9004
0.475,0.1188,0.0,0.1811,0.089,0.08521,0.7815,0.056,72.2985
0.425,0.1063,0.0,0.1535,0.165,0.08521,0.8871,0.056,64.3005
0.5313,0.0,0.0,0.1418,0.282,0.08521,0.8937,0.056,58.7985
0.3188,0.2125,0.0,0.1557,0.143,0.08521,0.8804,0.056,66.1001
0.3626,0.189,0.0,0.1649,0.116,0.09447,0.7558,0.056,77.2972
0.3795,0.1512,0.0,0.1539,0.159,0.11343,0.605,0.056,54.8961
0.2863,0.2009,0.0,0.1447,0.112,0.10046,0.8037,0.056,72.9948
0.439,0.177,0.0,0.186,0.111,0.08849,0.7079,0.056,71.6986
0.3626,0.189,0.0,0.1649,0.116,0.09447,0.7558,0.056,77.2972
0.374,0.1892,0.0,0.1701,0.101,0.09261,0.7567,0.091,64.9004
0.425,0.1063,0.0,0.1535,0.165,0.08521,0.8871,0.091,65.1969
0.375,0.0938,0.0,0.1266,0.234,0.08521,0.9926,0.091,62.501
0.469,0.1172,0.0,0.1378,0.322,0.08521,0.8405,0.091,70.6989
0.3886,0.0971,0.0,0.1579,0.121,0.08521,0.9257,0.091,57.5988
0.425,0.1063,0.0,0.1535,0.165,0.08521,0.8871,0.091,65.1969
0.4018,0.0947,0.0,0.1474,0.114,0.09468,0.8521,0.091,75.4976
0.3795,0.1512,0.0,0.1539,0.159,0.11343,0.605,0.091,56.4957
0.2863,0.2009,0.0,0.1447,0.112,0.10046,0.8037,0.091,76.8007
0.439,0.177,0.0,0.186,0.111,0.08849,0.7079,0.091,73.2982
0.3626,0.189,0.0,0.1649,0.116,0.09447,0.7558,0.091,79.2966
0.22236,0.0,0.09667,0.18929,0.0446,0.096708,0.87032,0.003,11.5763
0.22236,0.0,0.09667,0.18929,0.0446,0.096708,0.87032,0.028,24.8901
0.22236,0.0,0.09667,0.18929,0.0446,0.096708,0.87032,0.1,40.7136
0.23381,0.0,0.09458,0.19789,0.04567,0.094704,0.85216,0.014,22.1391
0.23381,0.0,0.09458,0.19789,0.04567,0.094704,0.85216,0.056,27.6618
0.19468,0.0,0.10052,0.16562,0.0748,0.10064,0.9059,0.003,12.4519
0.19468,0.0,0.10052,0.16562,0.0748,0.10064,0.9059,0.028,25.7243
0.19468,0.0,0.10052,0.16562,0.0748,0.10064,0.9059,0.1,37.342
0.19068,0.0,0.1254,0.16214,0.0777,0.109,0.80401,0.014,21.0635
0.19068,0.0,0.1254,0.16214,0.0777,0.109,0.80401,0.056,35.3425
0.21207,0.0,0.12162,0.18031,0.0569,0.10576,0.77932,0.003,12.4726
0.21207,0.0,0.12162,0.18031,0.0569,0.10576,0.77932,0.028,24.9039
0.21207,0.0,0.12162,0.18031,0.0569,0.10576,0.77932,0.1,39.6104
0.22997,0.0,0.11831,0.19547,0.0463,0.10294,0.75859,0.014,20.0844
0.22997,0.0,0.11831,0.19547,0.0463,0.10294,0.75859,0.056,31.5366
0.19034,0.0,0.12518,0.16185,0.0988,0.10881,0.80259,0.003,9.44582
0.19034,0.0,0.12518,0.16185,0.0988,0.10881,0.80259,0.028,28.4685
0.19034,0.0,0.12518,0.16185,0.0988,0.10881,0.80259,0.1,40.3895
0.16609,0.0,0.16327,0.17646,0.0449,0.10586,0.78009,0.014,25.483
0.16609,0.0,0.16327,0.17646,0.0449,0.10586,0.78009,0.056,28.627
0.16795,0.04208,0.16383,0.12175,0.0572,0.10587,0.78011,0.003,7.74971
0.16795,0.04208,0.16383,0.12175,0.0572,0.10587,0.78011,0.028,24.242
0.16795,0.04208,0.16383,0.12175,0.0572,0.10587,0.78011,0.1,39.2312
0.21372,0.09805,0.02451,0.18171,0.0686,0.10658,0.78538,0.014,30.3852
0.21372,0.09805,0.02451,0.18171,0.0686,0.10658,0.78538,0.056,50.773
0.21376,0.09806,0.02452,0.18174,0.0665,0.1066,0.78552,0.003,13.1828
0.21376,0.09806,0.02452,0.18174,0.0665,0.1066,0.78552,0.028,40.2309
0.21376,0.09806,0.02452,0.18174,0.0665,0.1066,0.78552,0.1,49.9732
0.22968,0.0,0.11816,0.19523,0.0613,0.10281,0.75763,0.014,22.3183
0.22968,0.0,0.11816,0.19523,0.0613,0.10281,0.75763,0.056,31.3505
0.23805,0.0,0.09411,0.18666,0.07,0.094991,0.84701,0.003,19.9328
0.23805,0.0,0.09411,0.18666,0.07,0.094991,0.84701,0.028,30.2335
0.23805,0.0,0.09411,0.18666,0.07,0.094991,0.84701,0.1,44.2988
0.25,0.0,0.09569,0.18742,0.0553,0.095686,0.86117,0.014,24.9177
0.25,0.0,0.09569,0.18742,0.0553,0.095686,0.86117,0.056,38.328
0.21252,0.0,0.10037,0.15932,0.0871,0.10078,0.90359,0.003,13.5413
0.21252,0.0,0.10037,0.15932,0.0871,0.10078,0.90359,0.028,31.6401
0.21252,0.0,0.10037,0.15932,0.0871,0.10078,0.90359,0.1,42.9199
0.21257,0.0,0.10039,0.15935,0.1037,0.10038,0.90379,0.014,25.3727
0.21257,0.0,0.10039,0.15935,0.1037,0.10038,0.90379,0.056,44.3954
0.212,0.0,0.12478,0.159,0.0784,0.10854,0.79954,0.003,19.5191
0.212,0.0,0.12478,0.159,0.0784,0.10854,0.79954,0.028,38.5003
0.212,0.0,0.12478,0.159,0.0784,0.10854,0.79954,0.1,47.8152
0.23175,0.0,0.12162,0.17396,0.0672,0.10564,0.77845,0.014,26.7724
0.23175,0.0,0.12162,0.17396,0.0672,0.10564,0.77845,0.056,42.6992
0.25137,0.0,0.11827,0.18845,0.0575,0.10284,0.75773,0.003,17.2231
0.25137,0.0,0.11827,0.18845,0.0575,0.10284,0.75773,0.028,29.6544
0.25137,0.0,0.11827,0.18845,0.0575,0.10284,0.75773,0.1,43.5818
0.25137,0.0,0.11827,0.18845,0.0635,0.10284,0.75773,0.014,24.4281
0.25137,0.0,0.11827,0.18845,0.0635,0.10284,0.75773,0.056,36.6388
0.18138,0.0,0.16701,0.16959,0.0756,0.10556,0.7778,0.003,13.624
0.18138,0.0,0.16701,0.16959,0.0756,0.10556,0.7778,0.028,27.7721
0.18138,0.0,0.16701,0.16959,0.0756,0.10556,0.7778,0.1,45.3675
0.18204,0.04521,0.12197,0.17021,0.0819,0.10594,0.78065,0.014,21.5048
0.18204,0.04521,0.12197,0.17021,0.0819,0.10594,0.78065,0.056,43.499
0.16888,0.04222,0.12425,0.15833,0.1083,0.10808,0.79615,0.003,7.39808
0.16888,0.04222,0.12425,0.15833,0.1083,0.10808,0.79615,0.028,31.1161
0.16888,0.04222,0.12425,0.15833,0.1083,0.10808,0.79615,0.1,48.153
0.29035,0.0,0.09618,0.16808,0.0941,0.096118,0.865,0.014,34.6737
0.29035,0.0,0.09618,0.16808,0.0941,0.096118,0.865,0.056,45.0848
0.27705,0.0,0.09739,0.1606,0.1183,0.09739,0.87561,0.003,23.1388
0.27705,0.0,0.09739,0.1606,0.1183,0.09739,0.87561,0.028,48.284
0.27705,0.0,0.09739,0.1606,0.1183,0.09739,0.87561,0.1,55.6407
0.29571,0.0,0.09564,0.17154,0.0887,0.095514,0.8592,0.014,35.2322
0.29571,0.0,0.09564,0.17154,0.0887,0.095514,0.8592,0.056,48.7184
0.25181,0.0,0.09994,0.14614,0.1235,0.1006,0.89976,0.003,21.0221
0.25181,0.0,0.09994,0.14614,0.1235,0.1006,0.89976,0.028,33.9429
0.25181,0.0,0.09994,0.14614,0.1235,0.1006,0.89976,0.1,45.3675
0.2491,0.0,0.09875,0.15811,0.128,0.098776,0.88901,0.014,28.6822
0.2491,0.0,0.09875,0.15811,0.128,0.098776,0.88901,0.056,42.0305
0.25231,0.0,0.09875,0.14625,0.1417,0.098776,0.88901,0.003,21.7805
0.25231,0.0,0.09875,0.14625,0.1417,0.098776,0.88901,0.028,50.6006
0.25231,0.0,0.09875,0.14625,0.1417,0.098776,0.88901,0.1,60.9497
0.24683,0.0,0.12508,0.1433,0.1199,0.10868,0.80089,0.014,42.2166
0.24683,0.0,0.12508,0.1433,0.1199,0.10868,0.80089,0.056,60.3223
0.27507,0.0,0.12135,0.15948,0.099,0.10536,0.7775,0.003,23.8007
0.27507,0.0,0.12135,0.15948,0.099,0.10536,0.7775,0.028,51.3315
0.27507,0.0,0.12135,0.15948,0.099,0.10536,0.7775,0.1,58.60546
0.29716,0.0,0.11754,0.1748,0.0952,0.10228,0.75345,0.014,36.9904
0.29716,0.0,0.11754,0.1748,0.0952,0.10228,0.75345,0.056,51.9589
0.21374,0.0,0.17474,0.15479,0.1016,0.10535,0.77635,0.003,17.5747
0.21374,0.0,0.17474,0.15479,0.1016,0.10535,0.77635,0.028,40.1482
0.21374,0.0,0.17474,0.15479,0.1016,0.10535,0.77635,0.1,50.0766
0.2135,0.0,0.17424,0.15461,0.1166,0.10523,0.77548,0.014,33.7016
0.2135,0.0,0.17424,0.15461,0.1166,0.10523,0.77548,0.056,51.4349
0.27719,0.09782,0.02446,0.1607,0.1119,0.10617,0.78246,0.003,30.4473
0.27719,0.09782,0.02446,0.1607,0.1119,0.10617,0.78246,0.028,63.1422
0.27719,0.09782,0.02446,0.1607,0.1119,0.10617,0.78246,0.1,66.9481
0.21823,0.05464,0.12378,0.14075,0.1191,0.10757,0.79267,0.014,35.9562
0.21823,0.05464,0.12378,0.14075,0.1191,0.10757,0.79267,0.056,61.9908
0.2149,0.0538,0.12189,0.15563,0.0961,0.10143,0.78058,0.003,18.016
0.2149,0.0538,0.12189,0.15563,0.0961,0.10143,0.78058,0.028,52.2002
0.2149,0.0538,0.12189,0.15563,0.0961,0.10143,0.78058,0.1,56.6336
0.21885,0.0,0.12413,0.15849,0.1133,0.10787,0.79491,0.014,26.0484
0.21885,0.0,0.12413,0.15849,0.1133,0.10787,0.79491,0.056,37.2662
0.376,0.0,0.0,0.2146,0.0,0.10035,0.76236,0.003,16.2785
0.376,0.0,0.0,0.2146,0.0,0.10035,0.76236,0.028,31.971
0.376,0.0,0.0,0.2146,0.0,0.10035,0.76236,0.1,43.0578
0.475,0.0,0.059,0.142,0.019,0.1098,0.641,0.028,57.2265
0.505,0.0,0.06,0.195,0.0,0.103,0.63,0.028,64.0178
0.516,0.0,0.0,0.162,0.082,0.0801,0.802,0.028,41.36856
0.528,0.0,0.0,0.185,0.0686,0.092,0.72,0.028,56.8335
0.385,0.0,0.136,0.158,0.2,0.0903,0.768,0.028,55.5511
0.4501,0.05,0.0,0.2,0.03,0.11244,0.6132,0.028,39.376
0.333,0.0175,0.163,0.167,0.179,0.0996,0.652,0.028,47.2774
0.405,0.0,0.0,0.175,0.0,0.112,0.695,0.028,52.3036
0.516,0.0,0.0,0.162,0.0826,0.0801,0.802,0.028,41.36856
0.16,0.128,0.122,0.182,0.064,0.0824,0.879,0.028,39.3967
0.25,0.18,0.095,0.159,0.0945,0.086,0.8,0.028,67.8651
0.285,0.19,0.0,0.163,0.076,0.1031,0.685,0.028,53.5792
0.275,0.18,0.12,0.162,0.1035,0.083,0.765,0.028,76.2354
0.165,2e-05,0.14357,0.16381,0.0,0.10056,0.9009,0.003,14.3963
0.17803,0.1298,0.1186,0.17994,0.0357,0.10073,0.7468,0.003,20.7256
0.17238,0.01361,0.17237,0.15676,0.0414,0.10063,0.8564,0.003,21.291
0.167,0.0754,0.167,0.16403,0.0791,0.10073,0.7701,0.003,15.5201
0.19034,0.0,0.12518,0.16661,0.0988,0.1079,0.7989,0.003,12.5485
0.2135,0.0,0.17424,0.15921,0.1166,0.10436,0.7719,0.003,15.6097
0.25137,0.0,0.11827,0.19294,0.0575,0.10436,0.7543,0.003,11.9831
0.165,0.1285,0.1321,0.17506,0.0808,0.10058,0.7466,0.014,33.088
0.16735,0.1299,0.12862,0.17546,0.0779,0.10063,0.7466,0.014,31.8124
0.17354,0.05005,0.17353,0.16477,0.0647,0.10062,0.7935,0.014,33.0052
0.17381,0.09337,0.1599,0.17234,0.0973,0.10072,0.7466,0.014,29.5509
0.25,0.0,0.09569,0.19184,0.0533,0.09489,0.8572,0.014,24.6557
0.19468,0.0,0.10052,0.17017,0.0748,0.0998,0.9018,0.014,24.2833
0.165,2e-05,0.14357,0.16381,0.0,0.10056,0.9009,0.028,26.2001
0.17803,0.1298,0.1186,0.17994,0.0357,0.10073,0.7468,0.028,39.1622
0.17238,0.01361,0.17237,0.15676,0.0414,0.10063,0.8564,0.028,33.6878
0.167,0.0754,0.167,0.16403,0.0791,0.10073,0.7701,0.028,41.4099
0.19034,0.0,0.12518,0.16661,0.0988,0.1079,0.7989,0.028,24.8487
0.2135,0.0,0.17424,0.15921,0.1166,0.10436,0.7719,0.028,44.6367
0.25137,0.0,0.11827,0.19294,0.0575,0.10436,0.7543,0.028,33.2741
0.165,0.1285,0.1321,0.17506,0.0808,0.10058,0.7466,0.056,53.724
0.16735,0.1299,0.12862,0.17546,0.0779,0.10063,0.7466,0.056,51.7245
0.17354,0.05005,0.17353,0.16477,0.0647,0.10062,0.7935,0.056,53.7722
0.17381,0.09337,0.1599,0.17234,0.0973,0.10072,0.7466,0.056,48.9873
0.25,0.0,0.09569,0.19184,0.0533,0.09489,0.8572,0.056,39.64487
0.19468,0.0,0.10052,0.17017,0.0748,0.0998,0.9018,0.056,43.3887
0.165,2e-05,0.14357,0.16381,0.0,0.10056,0.9009,0.1,37.9557
0.17803,0.1298,0.1186,0.17994,0.0357,0.10073,0.7468,0.1,49.9939
0.17238,0.01361,0.17237,0.15676,0.0414,0.10063,0.8564,0.1,37.6799
0.167,0.0754,0.167,0.16403,0.0791,0.10073,0.7701,0.1,56.8128
0.19034,0.0,0.12518,0.16661,0.0988,0.1079,0.7989,0.1,33.5637
0.2135,0.0,0.17424,0.15921,0.1166,0.10436,0.7719,0.1,52.9587
0.25137,0.0,0.11827,0.19294,0.0575,0.10436,0.7543,0.1,40.1482
0.446,0.024,0.079,0.162,0.1164,0.0967,0.712,0.028,44.4229
0.446,0.024,0.079,0.162,0.103,0.0967,0.712,0.028,53.3861
0.446,0.024,0.079,0.162,0.1164,0.0967,0.712,0.003,25.0211
0.446,0.024,0.079,0.162,0.1161,0.0967,0.712,0.007,52.0072
0.446,0.024,0.079,0.162,0.1164,0.0967,0.712,0.007,39.3001
0.446,0.024,0.079,0.162,0.1164,0.0967,0.712,0.056,56.144
0.446,0.024,0.079,0.162,0.103,0.0967,0.712,0.056,54.7651
0.387,0.02,0.094,0.157,0.1393,0.0938,0.845,0.028,46.6844
0.387,0.02,0.094,0.157,0.1432,0.0938,0.845,0.003,22.7527
0.387,0.02,0.094,0.157,0.1161,0.0938,0.845,0.003,34.7703
0.387,0.02,0.094,0.157,0.1393,0.0938,0.845,0.007,45.8984
0.387,0.02,0.094,0.157,0.1432,0.0938,0.845,0.056,56.3371
0.387,0.02,0.094,0.157,0.1161,0.0938,0.845,0.056,61.4599
0.355,0.019,0.097,0.145,0.1225,0.0967,0.871,0.028,55.4546
0.491,0.026,0.123,0.201,0.0393,0.0822,0.699,0.028,57.916
0.491,0.026,0.123,0.21,0.0393,0.0882,0.699,0.007,33.4888
0.491,0.026,0.123,0.201,0.0393,0.0822,0.699,0.003,29.549
0.491,0.026,0.123,0.201,0.0393,0.0822,0.699,0.056,61.8558
0.424,0.022,0.132,0.178,0.0848,0.0882,0.75,0.003,32.0114
0.424,0.022,0.132,0.178,0.0848,0.0822,0.75,0.007,39.0046
0.424,0.022,0.132,0.168,0.0892,0.0822,0.75,0.003,32.1099
0.424,0.022,0.132,0.168,0.0892,0.0822,0.75,0.056,74.3649
0.202,0.011,0.141,0.206,0.0172,0.0942,0.801,0.003,9.84966
0.202,0.011,0.141,0.206,0.0172,0.0942,0.801,0.056,23.2452
0.284,0.015,0.141,0.179,0.0546,0.0842,0.801,0.003,13.3955
0.284,0.015,0.141,0.179,0.0546,0.0842,0.801,0.056,44.5205
0.359,0.019,0.141,0.154,0.1091,0.0942,0.801,0.028,59.4949
0.359,0.019,0.141,0.154,0.1091,0.0942,0.801,0.003,23.6392
0.359,0.019,0.141,0.154,0.1091,0.0942,0.801,0.007,38.6107
0.359,0.019,0.141,0.154,0.1091,0.0942,0.801,0.056,66.7807
0.289,0.0,0.0,0.192,0.0,0.09132,0.8953,0.09,32.0682
0.393,0.0,0.0,0.192,0.0,0.09406,0.7856,0.003,19.1991
0.393,0.0,0.0,0.192,0.0,0.09406,0.7856,0.028,39.6049
0.48,0.0,0.0,0.192,0.0,0.09362,0.7122,0.007,34.5696
0.48,0.0,0.0,0.192,0.0,0.09362,0.7122,0.003,24.4047
0.255,0.0,0.0,0.192,0.0,0.08898,0.945,0.09,21.8591
0.289,0.0,0.0,0.192,0.0,0.09132,0.8953,0.007,14.5969
0.333,0.0,0.0,0.192,0.0,0.09312,0.8426,0.028,31.9669
0.289,0.0,0.0,0.192,0.0,0.09132,0.8953,0.028,25.5734
0.393,0.0,0.0,0.192,0.0,0.09406,0.7856,0.007,27.7424
0.1588,0.2382,0.0,0.1857,0.0,0.10406,0.7343,0.007,9.6175
0.2382,0.1588,0.0,0.1857,0.0,0.10406,0.7343,0.007,15.6911
0.1935,0.2902,0.0,0.1857,0.0,0.09982,0.7043,0.028,32.6267
0.2728,0.1819,0.0,0.1857,0.0,0.10124,0.7143,0.007,19.7652
0.2208,0.1472,0.0,0.1857,0.0,0.1055,0.7443,0.028,25.745
0.3825,0.0,0.0,0.1857,0.0,0.10478,0.7393,0.007,24.0655
0.1588,0.2382,0.0,0.1857,0.0,0.10406,0.7343,0.028,21.0662
0.2555,0.1703,0.0,0.1857,0.0,0.10266,0.7243,0.028,32.0517
0.397,0.0,0.0,0.1857,0.0,0.10406,0.7343,0.007,25.4479
0.2958,0.0,0.0,0.1857,0.0,0.10914,0.7693,0.028,25.2169
0.2208,0.1472,0.0,0.1857,0.0,0.1055,0.7443,0.007,13.089
0.1357,0.2035,0.0,0.1857,0.0,0.10762,0.7593,0.007,7.50701
0.3392,0.0,0.0,0.1857,0.0,0.10692,0.7543,0.007,21.1793
0.1935,0.2902,0.0,0.1857,0.0,0.09982,0.7043,0.007,17.2004
0.2902,0.1935,0.0,0.1857,0.0,0.09982,0.7043,0.007,21.8591
0.1703,0.1555,0.0,0.1857,0.0,0.10266,0.7243,0.028,25.7264
0.228,0.3421,0.0,0.1857,0.0,0.09558,0.6743,0.007,21.9171
0.3814,0.0,0.0,0.1857,0.0,0.11046,0.7843,0.007,14.541
0.1862,0.1241,0.0,0.1857,0.0,0.10834,0.7643,0.007,7.99585
0.2381,0.0,0.0,0.1857,0.0,0.11188,0.7893,0.007,10.3359
0.3825,0.0,0.0,0.1857,0.0,0.10478,0.7393,0.028,37.4379
0.3161,0.2107,0.0,0.1857,0.0,0.0977,0.6893,0.007,24.4378
0.1703,0.1555,0.0,0.1857,0.0,0.10266,0.7243,0.007,10.7303
0.339,0.0,0.0,0.197,0.0,0.0968,0.781,0.003,13.2241
0.339,0.0,0.0,0.197,0.0,0.0968,0.781,0.014,27.0412
0.339,0.0,0.0,0.197,0.0,0.0968,0.781,0.09,35.1702
0.339,0.0,0.0,0.197,0.0,0.0968,0.781,0.365,38.8933
0.236,0.0,0.0,0.194,0.0,0.0968,0.885,0.014,12.838
0.236,0.0,0.0,0.194,0.0,0.0968,0.885,0.09,21.946
0.236,0.0,0.0,0.193,0.0,0.0968,0.885,0.365,25.0831
0.277,0.0,0.0,0.191,0.0,0.0968,0.856,0.028,25.9657
0.277,0.0,0.0,0.191,0.0,0.0968,0.856,0.09,31.2539
0.277,0.0,0.0,0.191,0.0,0.0968,0.856,0.36,33.7016
0.254,0.0,0.0,0.198,0.0,0.0968,0.863,0.09,26.9447
0.254,0.0,0.0,0.198,0.0,0.0968,0.863,0.365,29.7854
0.307,0.0,0.0,0.193,0.0,0.0968,0.812,0.365,36.1492
0.307,0.0,0.0,0.193,0.0,0.0968,0.812,0.028,27.5308
0.236,0.0,0.0,0.193,0.0,0.0968,0.885,0.007,9.99051
0.2,0.0,0.0,0.18,0.0,0.1125,0.845,0.028,12.2451
0.225,0.0,0.0,0.181,0.0,0.1113,0.833,0.028,17.3403
0.325,0.0,0.0,0.184,0.0,0.1063,0.783,0.028,30.5714
0.275,0.0,0.0,0.183,0.0,0.1088,0.808,0.028,24.4971
0.3,0.0,0.0,0.184,0.0,0.1075,0.795,0.028,26.8482
0.375,0.0,0.0,0.186,0.0,0.1038,0.758,0.028,38.2108
0.4,0.0,0.0,0.187,0.0,0.1025,0.745,0.007,30.1439
0.25,0.0,0.0,0.182,0.0,0.11,0.82,0.028,20.8704
0.35,0.0,0.0,0.186,0.0,0.105,0.77,0.028,34.2945
0.2502,0.1668,0.0,0.2035,0.0,0.09776,0.6941,0.09,47.7145
0.1413,0.212,0.0,0.2035,0.0,0.09718,0.7485,0.028,29.8922
0.1226,0.1839,0.0,0.2035,0.0,0.09582,0.8001,0.09,33.1921
0.102,0.153,0.0,0.192,0.0,0.0887,0.942,0.003,4.56502
0.1226,0.1839,0.0,0.2035,0.0,0.09582,0.8001,0.028,24.2909
0.2,0.133,0.0,0.192,0.0,0.09654,0.8062,0.003,11.4143
0.3053,0.2035,0.0,0.2035,0.0,0.09654,0.631,0.007,25.894
0.116,0.173,0.0,0.192,0.0,0.09098,0.8919,0.09,31.0237
0.157,0.236,0.0,0.192,0.0,0.09354,0.7812,0.028,33.6644
0.2502,0.1668,0.0,0.2035,0.0,0.09776,0.6941,0.007,19.3501
0.192,0.288,0.0,0.192,0.0,0.09298,0.7161,0.003,12.7884
0.153,0.102,0.0,0.192,0.0,0.0888,0.9431,0.003,4.78221
0.3053,0.2035,0.0,0.2035,0.0,0.09654,0.631,0.028,43.377
0.173,0.116,0.0,0.192,0.0,0.09468,0.8568,0.003,6.94095
0.236,0.157,0.0,0.192,0.0,0.09726,0.7491,0.003,13.5654
0.1668,0.2502,0.0,0.2035,0.0,0.09756,0.6926,0.007,15.7483
0.288,0.192,0.0,0.192,0.0,0.0932,0.7178,0.028,38.8044
0.102,0.153,0.0,0.192,0.0,0.0887,0.942,0.028,17.2755
0.1839,0.1226,0.0,0.2035,0.0,0.09592,0.8,0.028,24.0462
0.192,0.288,0.0,0.192,0.0,0.09298,0.7161,0.09,50.7323
0.3053,0.2035,0.0,0.2035,0.0,0.09654,0.631,0.003,14.1439
0.1083,0.1624,0.0,0.2035,0.0,0.09382,0.849,0.003,2.33181
0.288,0.192,0.0,0.192,0.0,0.0932,0.7178,0.007,23.5235
0.212,0.1413,0.0,0.2035,0.0,0.09734,0.75,0.09,39.7
0.236,0.157,0.0,0.192,0.0,0.09726,0.7491,0.028,32.8846
0.1839,0.1226,0.0,0.2035,0.0,0.09592,0.8,0.007,10.7875
0.2035,0.3053,0.0,0.2035,0.0,0.09634,0.63,0.028,41.6843
0.133,0.2,0.0,0.192,0.0,0.09274,0.8392,0.003,6.88373
0.2,0.133,0.0,0.192,0.0,0.09654,0.8062,0.007,17.1659
0.2502,0.1668,0.0,0.2035,0.0,0.09776,0.6941,0.003,9.73126
0.153,0.102,0.0,0.192,0.0,0.0888,0.9431,0.09,26.3228
0.116,0.173,0.0,0.192,0.0,0.09098,0.8919,0.003,6.28044
0.2502,0.1668,0.0,0.2035,0.0,0.09776,0.6941,0.028,36.9642
0.192,0.288,0.0,0.192,0.0,0.09298,0.7161,0.007,21.4806
0.153,0.102,0.0,0.192,0.0,0.0888,0.9431,0.007,8.37438
0.116,0.173,0.0,0.192,0.0,0.09098,0.8919,0.007,10.0898
0.1226,0.1839,0.0,0.2035,0.0,0.09582,0.8001,0.007,10.3546
0.2035,0.3053,0.0,0.2035,0.0,0.09634,0.63,0.09,51.8638
0.31,0.0,0.0,0.192,0.0,0.1012,0.83,0.007,17.2438
0.31,0.0,0.0,0.192,0.0,0.1012,0.83,0.09,35.7631
0.331,0.0,0.0,0.192,0.0,0.1025,0.821,0.003,14.3066
0.331,0.0,0.0,0.192,0.0,0.1025,0.821,0.028,31.7435
0.331,0.0,0.0,0.192,0.0,0.1025,0.821,0.12,39.3829
0.349,0.0,0.0,0.192,0.0,0.1056,0.809,0.007,9.01145
0.349,0.0,0.0,0.192,0.0,0.1056,0.809,0.09,40.6584
0.238,0.0,0.0,0.186,0.0,0.1119,0.789,0.007,12.052
0.296,0.0,0.0,0.186,0.0,0.109,0.769,0.007,18.9123
0.297,0.0,0.0,0.186,0.0,0.104,0.734,0.007,30.9575
0.48,0.0,0.0,0.192,0.0,0.0936,0.721,0.09,54.2756
0.281,0.0,0.0,0.186,0.0,0.1104,0.774,0.007,14.4997
0.5,0.0,0.0,0.2,0.0,0.1125,0.613,0.001,12.6381
0.5,0.0,0.0,0.2,0.0,0.1125,0.613,0.007,33.2121
0.5,0.0,0.0,0.2,0.0,0.1125,0.613,0.028,44.092
0.54,0.0,0.0,0.173,0.0,0.1125,0.613,0.014,59.7638
0.54,0.0,0.0,0.173,0.0,0.1125,0.613,0.09,69.6578
0.54,0.0,0.0,0.173,0.0,0.1125,0.613,0.27,74.1669
0.35,0.0,0.0,0.203,0.0,0.0974,0.775,0.014,22.5321
0.35,0.0,0.0,0.203,0.0,0.0974,0.775,0.056,29.9784
0.35,0.0,0.0,0.203,0.0,0.0974,0.775,0.18,32.7225
0.385,0.0,0.0,0.186,0.0,0.0966,0.763,0.003,14.6996
0.385,0.0,0.0,0.186,0.0,0.0966,0.763,0.014,27.9238
0.331,0.0,0.0,0.192,0.0,0.0978,0.825,0.18,38.9968
0.349,0.0,0.0,0.192,0.0,0.1047,0.806,0.003,14.9892
0.382,0.0,0.0,0.186,0.0,0.1047,0.739,0.007,24.0007
0.382,0.0,0.0,0.186,0.0,0.1111,0.784,0.007,11.466
0.339,0.0,0.0,0.185,0.0,0.1069,0.754,0.007,21.16
0.295,0.0,0.0,0.185,0.0,0.1069,0.769,0.007,14.7962
0.238,0.0,0.0,0.185,0.0,0.1118,0.789,0.028,17.5403
0.296,0.0,0.0,0.192,0.0,0.1085,0.765,0.028,21.6495
0.331,0.0,0.0,0.192,0.0,0.0879,0.825,0.003,13.5206
0.331,0.0,0.0,0.192,0.0,0.0978,0.825,0.028,31.447
0.349,0.0,0.0,0.192,0.0,0.1047,0.806,0.007,18.1263
0.349,0.0,0.0,0.192,0.0,0.1047,0.806,0.09,39.4863
0.349,0.0,0.0,0.192,0.0,0.1047,0.806,0.36,42.127
0.302,0.0,0.0,0.203,0.0,0.0974,0.817,0.18,26.7448
0.5,0.0,0.0,0.2,0.0,0.1125,0.613,0.09,47.2222
0.5,0.0,0.0,0.2,0.0,0.1125,0.613,0.27,55.15808
0.252,0.0,0.0,0.185,0.0,0.1111,0.784,0.007,13.7137
0.339,0.0,0.0,0.185,0.0,0.106,0.754,0.028,31.6469
0.393,0.0,0.0,0.192,0.0,0.094,0.758,0.028,39.5828
0.382,0.0,0.0,0.185,0.0,0.1047,0.739,0.007,24.0007
0.252,0.0,0.0,0.186,0.0,0.1111,0.784,0.007,11.466
0.31,0.0,0.0,0.192,0.0,0.097,0.85,0.007,14.9892
0.31,0.0,0.0,0.192,0.0,0.097,0.85,0.09,34.6806
0.31,0.0,0.0,0.192,0.0,0.097,0.85,0.36,38.1142
0.525,0.0,0.0,0.189,0.0,0.1125,0.613,0.007,42.4235
0.525,0.0,0.0,0.189,0.0,0.1125,0.613,0.028,55.9441
0.525,0.0,0.0,0.189,0.0,0.1125,0.613,0.27,67.1136
0.322,0.0,0.0,0.203,0.0,0.0974,0.8,0.028,25.1797
0.302,0.0,0.0,0.203,0.0,0.0974,0.817,0.028,21.753
0.48,0.0,0.0,0.192,0.0,0.0936,0.721,0.003,24.3937
0.522,0.0,0.0,0.146,0.0,0.0896,0.896,0.028,74.9874
0.162,0.19,0.148,0.179,0.19,0.0838,0.741,0.028,33.7567
0.147,0.115,0.089,0.202,0.09,0.086,0.829,0.028,19.9879
0.31,0.143,0.111,0.168,0.22,0.0914,0.651,0.028,33.6878
0.304,0.14,0.0,0.214,0.06,0.0895,0.722,0.028,33.4189
0.159,0.149,0.116,0.175,0.15,0.0953,0.72,0.028,27.6756
0.31,0.143,0.0,0.168,0.1,0.0914,0.804,0.028,45.2986
0.151,0.0,0.184,0.167,0.12,0.0991,0.772,0.028,15.5684
0.298,0.137,0.107,0.201,0.06,0.0878,0.655,0.028,53.524
0.366,0.187,0.0,0.191,0.07,0.0824,0.757,0.028,65.907
0.252,0.097,0.076,0.194,0.08,0.0835,0.821,0.028,33.3982
0.156,0.243,0.0,0.18,0.11,0.1022,0.698,0.028,37.3627
0.298,0.0,0.107,0.186,0.06,0.0879,0.815,0.028,42.6372
0.287,0.121,0.094,0.188,0.09,0.0904,0.696,0.028,41.9408
0.356,0.0,0.142,0.193,0.11,0.0801,0.778,0.028,40.8652
0.322,0.149,0.0,0.186,0.08,0.0951,0.709,0.028,52.4209
0.314,0.0,0.113,0.17,0.1,0.0925,0.783,0.028,38.459
0.14,0.164,0.128,0.237,0.06,0.0869,0.656,0.028,35.2253
0.298,0.0,0.107,0.21,0.11,0.088,0.744,0.028,31.8745
0.16,0.25,0.0,0.168,0.12,0.1049,0.688,0.028,39.4518
0.276,0.116,0.09,0.18,0.09,0.087,0.768,0.028,44.2781
0.149,0.139,0.109,0.193,0.06,0.0892,0.78,0.028,23.6904
0.261,0.1,0.078,0.201,0.09,0.0864,0.761,0.028,32.3985
0.313,0.0,0.113,0.178,0.08,0.1002,0.689,0.028,36.8042
0.146,0.23,0.0,0.202,0.03,0.0827,0.872,0.028,33.0604
0.133,0.21,0.0,0.196,0.03,0.0949,0.795,0.028,31.0264
0.152,0.0,0.112,0.184,0.08,0.0992,0.816,0.028,12.1761
0.14,0.133,0.103,0.2,0.07,0.0916,0.753,0.028,36.4388
0.3,0.0,0.12,0.212,0.1,0.0878,0.728,0.028,23.8352
0.148,0.0,0.137,0.158,0.16,0.1002,0.83,0.028,17.954
0.153,0.145,0.0,0.178,0.08,0.1,0.822,0.028,19.0089
0.158,0.0,0.195,0.22,0.11,0.0898,0.713,0.028,8.53571
0.273,0.0,0.09,0.199,0.11,0.0931,0.762,0.028,32.2399
0.143,0.169,0.143,0.191,0.08,0.0967,0.643,0.028,29.7233
0.313,0.161,0.0,0.178,0.1,0.0917,0.759,0.028,52.4415
0.336,0.0,0.0,0.182,0.03,0.0986,0.817,0.028,44.8642
0.15,0.237,0.0,0.174,0.12,0.1069,0.675,0.028,37.4317
0.331,0.17,0.0,0.195,0.08,0.0811,0.802,0.028,56.6129
0.155,0.183,0.0,0.193,0.09,0.0877,0.868,0.028,23.7869
0.266,0.112,0.087,0.178,0.1,0.091,0.745,0.028,39.4173
0.313,0.145,0.0,0.127,0.08,0.1,0.822,0.028,44.5195
0.144,0.136,0.106,0.178,0.07,0.0941,0.774,0.028,26.1449
0.277,0.117,0.091,0.191,0.07,0.0946,0.666,0.028,43.5749
0.313,0.145,0.0,0.178,0.08,0.1002,0.689,0.028,41.0514
0.289,0.134,0.0,0.195,0.06,0.0924,0.76,0.028,46.2432
0.145,0.0,0.179,0.202,0.08,0.0824,0.869,0.028,10.5352
0.136,0.162,0.126,0.172,0.1,0.0923,0.764,0.028,29.0683
0.255,0.099,0.077,0.189,0.06,0.0919,0.749,0.028,33.7981
0.136,0.196,0.098,0.199,0.06,0.0847,0.783,0.028,26.9654
0.162,0.214,0.164,0.202,0.1,0.082,0.68,0.028,30.6472
0.149,0.153,0.194,0.192,0.08,0.0935,0.623,0.028,24.5798
0.159,0.209,0.161,0.201,0.07,0.0848,0.669,0.028,30.8816
0.154,0.174,0.185,0.228,0.07,0.0845,0.612,0.028,24.3385
0.184,0.086,0.19,0.213,0.06,0.0923,0.623,0.028,22.932
0.2369,0.0917,0.0715,0.2469,0.06,0.08529,0.6954,0.028,28.6298
0.1548,0.1834,0.0,0.1933,0.091,0.10474,0.6967,0.028,18.2877
0.296,0.0,0.1067,0.2214,0.105,0.08192,0.7784,0.028,31.4201
0.3133,0.145,0.0,0.1785,0.08,0.08672,0.824,0.028,40.9252
0.1531,0.145,0.113,0.1785,0.08,0.10019,0.6887,0.028,25.5596
0.1495,0.236,0.0,0.1758,0.126,0.08468,0.8927,0.028,32.9638
0.1531,0.145,0.113,0.1785,0.08,0.08672,0.824,0.028,26.2332
0.3265,0.0,0.1379,0.199,0.108,0.08011,0.7925,0.028,38.6307
0.2619,0.1105,0.0861,0.1954,0.05,0.08952,0.7326,0.028,33.7188
0.1507,0.0,0.1853,0.1667,0.156,0.10745,0.678,0.028,13.4613
0.149,0.1176,0.0917,0.1829,0.071,0.09534,0.7803,0.028,23.5242
0.2599,0.1006,0.0784,0.1706,0.104,0.09357,0.7629,0.028,49.7733
0.284,0.1197,0.0,0.1683,0.072,0.09704,0.7942,0.028,40.9349
0.1448,0.0,0.1336,0.1808,0.111,0.09795,0.8115,0.028,13.2021
0.1437,0.1702,0.1326,0.1916,0.085,0.08141,0.8053,0.028,29.8709
0.1548,0.0,0.1428,0.1933,0.091,0.10474,0.6967,0.028,12.4595
0.1347,0.0,0.1657,0.1802,0.1,0.0961,0.8049,0.028,13.2938
0.314,0.1453,0.1132,0.1789,0.08,0.08691,0.6902,0.028,46.2342
0.1457,0.1726,0.0,0.1819,0.034,0.09858,0.8168,0.028,23.7442
0.1481,0.0,0.1821,0.1814,0.15,0.08389,0.8843,0.028,15.5263
0.2981,0.0,0.1075,0.1636,0.128,0.09532,0.784,0.028,35.8659
0.1552,0.1839,0.1432,0.1938,0.092,0.08796,0.6985,0.028,28.9911
0.1478,0.1751,0.0,0.1712,0.022,0.1,0.8285,0.028,26.9227
0.3127,0.0,0.0,0.1781,0.08,0.09997,0.8222,0.028,25.1038
0.1548,0.0,0.1428,0.1933,0.091,0.08772,0.8677,0.028,9.73816
0.2728,0.1051,0.0818,0.2097,0.09,0.0904,0.6797,0.028,37.171
0.1536,0.1442,0.1123,0.2201,0.101,0.09232,0.6579,0.028,16.504
0.1518,0.1781,0.1387,0.1675,0.183,0.0944,0.6946,0.028,36.3499
0.1436,0.0,0.1749,0.1584,0.179,0.09427,0.8445,0.028,15.4236
0.3743,0.0,0.0,0.1902,0.067,0.10132,0.7304,0.028,39.0561
0.1526,0.2387,0.0,0.2,0.063,0.10018,0.6839,0.028,26.8599
0.3048,0.0,0.0996,0.196,0.098,0.09594,0.7052,0.028,30.1232
0.1419,0.1666,0.1297,0.1735,0.109,0.08826,0.7853,0.028,44.6119
0.3213,0.1642,0.0,0.1905,0.046,0.087,0.774,0.028,57.2182
0.2798,0.1289,0.1004,0.1724,0.095,0.08251,0.8049,0.028,52.827
0.1646,0.0,0.1504,0.1816,0.117,0.10233,0.7289,0.028,18.0339
0.1602,0.188,0.1464,0.2032,0.113,0.08287,0.7097,0.028,35.3143
0.3179,0.0,0.1265,0.2097,0.057,0.08605,0.7366,0.028,40.062
0.3256,0.1664,0.0,0.174,0.089,0.08816,0.79,0.028,61.2358
0.132,0.2065,0.1609,0.1789,0.055,0.08669,0.7356,0.028,33.3065
0.1642,0.0,0.2001,0.1812,0.126,0.08493,0.846,0.028,15.0913
0.3214,0.0,0.1279,0.1825,0.115,0.08701,0.7797,0.028,37.2655
0.2884,0.121,0.0,0.1774,0.07,0.09079,0.8295,0.028,42.1401
0.2645,0.111,0.0865,0.1955,0.059,0.08326,0.7904,0.028,41.5423
0.166,0.2597,0.0,0.1832,0.127,0.08588,0.8268,0.028,37.917
0.3222,0.0,0.1156,0.196,0.104,0.08179,0.8134,0.028,31.1788
0.1591,0.1867,0.0,0.1756,0.113,0.09896,0.7889,0.028,32.768
0.2609,0.1005,0.0783,0.2006,0.086,0.08645,0.7615,0.028,32.4012