File: 02_normalization/minMax_norm.csv
Cement (component 1)(kg in a m^3 mixture),Blast Furnace Slag (component 2)(kg in a m^3 mixture),Fly Ash (component 3)(kg in a m^3 mixture),Water  (component 4)(kg in a m^3 mixture),Superplasticizer (component 5)(kg in a m^3 mixture),Coarse Aggregate  (component 6)(kg in a m^3 mixture),Fine Aggregate (component 7)(kg in a m^3 mixture),Age (day),"Concrete compressive strength(MPa, megapascals) "
1.0,0.0,0.0,0.321357,0.0776398,0.694767,0.20572,0.0741758,79.9861
0.526256,0.396494,0.0,0.848303,0.0,0.380814,0.0,0.739011,40.2695
0.220548,0.368392,0.0,0.560878,0.0,0.515698,0.580783,0.986264,44.2961
0.634703,0.264329,0.0,0.848303,0.0,0.380814,0.0,1.0,43.6983
0.374429,0.317195,0.0,0.848303,0.0,0.380814,0.190667,0.0741758,45.8543
0.220548,0.368392,0.0,0.560878,0.0,0.515698,0.580783,0.244505,38.0742
0.743151,0.132165,0.0,0.848303,0.0,0.380814,0.0,0.739011,43.013
0.461187,0.211464,0.0,0.848303,0.0,0.380814,0.190667,0.0741758,47.8138
0.0858447,0.582638,0.0,0.560878,0.0,0.715116,0.534119,0.244505,39.358
0.634703,0.264329,0.0,0.848303,0.0,0.380814,0.0,0.244505,40.5633
0.743151,0.132165,0.0,0.848303,0.0,0.380814,0.0,0.491758,41.8367
0.0858447,0.582638,0.0,0.560878,0.0,0.715116,0.534119,0.00549451,8.06342
0.634703,0.0,0.0,0.848303,0.0,0.380814,0.190667,1.0,52.5167
0.634703,0.264329,0.0,0.848303,0.0,0.380814,0.0,0.739011,41.1514
0.743151,0.132165,0.0,0.848303,0.0,0.380814,0.0,0.0741758,37.4275
0.461187,0.211464,0.0,0.848303,0.0,0.380814,0.190667,1.0,55.2601
0.220548,0.368392,0.0,0.560878,0.0,0.515698,0.580783,0.491758,41.7195
0.200913,0.528659,0.0,0.848303,0.0,0.380814,0.190667,1.0,53.6923
0.309361,0.660824,0.0,0.848303,0.0,0.380814,0.0,0.0741758,30.0798
0.851598,0.0,0.0,0.848303,0.0,0.380814,0.0,0.244505,42.229
0.547945,0.105732,0.0,0.848303,0.0,0.380814,0.190667,0.244505,50.4593
0.309361,0.660824,0.0,0.848303,0.0,0.380814,0.0,1.0,38.9954
0.743151,0.132165,0.0,0.848303,0.0,0.380814,0.0,0.244505,41.543
0.563927,0.0,0.0,0.560878,0.0,0.715116,0.534119,0.00549451,15.0492
0.309361,0.660824,0.0,0.848303,0.0,0.380814,0.0,0.0164835,26.258
0.526256,0.396494,0.0,0.848303,0.0,0.380814,0.0,0.491758,39.7793
0.309361,0.660824,0.0,0.848303,0.0,0.380814,0.0,0.244505,33.1169
0.0858447,0.582638,0.0,0.560878,0.0,0.715116,0.534119,0.0164835,14.5893
0.851598,0.0,0.0,0.848303,0.0,0.380814,0.0,1.0,41.9346
0.461187,0.211464,0.0,0.848303,0.0,0.380814,0.190667,0.491758,50.9488
0.461187,0.211464,0.0,0.848303,0.0,0.380814,0.190667,0.739011,54.3783
0.474886,0.0,0.0,0.560878,0.0,0.494186,0.643753,0.00549451,9.8664
0.374429,0.317195,0.0,0.848303,0.0,0.380814,0.190667,0.491758,48.6956
0.0858447,0.582638,0.0,0.560878,0.0,0.715116,0.534119,0.986264,44.698
0.200913,0.528659,0.0,0.848303,0.0,0.380814,0.190667,0.0741758,40.857
0.621005,0.526433,0.0,0.386028,0.313665,0.363663,0.408179,0.00549451,34.398
0.737443,0.295771,0.0,0.253493,0.512422,0.148547,0.735324,0.00549451,33.3982
0.623288,0.260991,0.0,0.0387226,0.726708,0.148547,1,0.00549451,28.9994
0.8379,0.326099,0.0,0.128144,1.0,0.148547,0.618414,0.00549451,40.1965
0.654338,0.270173,0.0,0.288623,0.375776,0.148547,0.832163,0.00549451,28.0961
0.737443,0.295771,0.0,0.253493,0.512422,0.148547,0.735324,0.00549451,33.3982
0.684475,0.263495,0.0,0.20479,0.354037,0.423837,0.647516,0.00549451,41.0997
0.506164,0.786867,0.0,0.495409,0.319876,0.411919,0.165329,0.00549451,28.2961
0.594977,0.525876,0.0,0.344511,0.360248,0.417733,0.405921,0.00549451,35.3012
0.594977,0.525876,0.0,0.344511,0.360248,0.417733,0.405921,0.00549451,35.3012
0.657306,0.525876,0.0,0.192814,0.68323,0.417733,0.405921,0.00549451,40.5963
0.538584,0.525876,0.0,0.424351,0.295031,0.417733,0.405921,0.00549451,24.0972
0.48242,0.729549,0.0,0.429142,0.267081,0.714826,0.0446563,0.0164835,42.7958
0.737443,0.295771,0.0,0.236727,0.57764,0.392442,0.526091,0.0164835,46.8016
0.851598,0.330551,0.0,0.473852,0.276398,0.148547,0.470396,0.0164835,55.5993
0.737443,0.295771,0.0,0.253493,0.512422,0.148547,0.735324,0.0164835,49.201
0.980137,0.0,0.0,0.16008,0.875776,0.148547,0.751882,0.0164835,46.8982
0.494977,0.591263,0.0,0.271058,0.444099,0.148547,0.718515,0.0164835,33.3982
0.594977,0.525876,0.0,0.344511,0.360248,0.417733,0.405921,0.0164835,55.8958
0.633562,0.420701,0.0,0.256687,0.493789,0.968895,0.0275966,0.0164835,47.0981
0.420776,0.558987,0.0,0.183234,0.347826,0.59186,0.526091,0.0164835,37.997
0.769406,0.492487,0.0,0.512974,0.34472,0.243895,0.28575,0.0164835,56.0958
0.594977,0.525876,0.0,0.344511,0.360248,0.417733,0.405921,0.0164835,22.8975
0.621005,0.526433,0.0,0.386028,0.313665,0.363663,0.408179,0.0741758,61.0945
0.737443,0.295771,0.0,0.253493,0.512422,0.148547,0.735324,0.0741758,60.2947
0.623288,0.260991,0.0,0.0387226,0.726708,0.148547,1,0.0741758,56.6956
0.8379,0.326099,0.0,0.128144,1.0,0.148547,0.618414,0.0741758,66.8999
0.654338,0.270173,0.0,0.288623,0.375776,0.148547,0.832163,0.0741758,50.6972
0.737443,0.295771,0.0,0.253493,0.512422,0.148547,0.735324,0.0741758,60.2947
0.684475,0.263495,0.0,0.20479,0.354037,0.423837,0.647516,0.0741758,68.4994
0.506164,0.786867,0.0,0.495409,0.319876,0.411919,0.165329,0.0741758,74.6978
0.594977,0.525876,0.0,0.344511,0.360248,0.417733,0.405921,0.0741758,71.2987
0.594977,0.525876,0.0,0.344511,0.360248,0.417733,0.405921,0.0741758,71.2987
0.657306,0.525876,0.0,0.192814,0.68323,0.417733,0.405921,0.0741758,74.4979
0.538584,0.525876,0.0,0.424351,0.295031,0.417733,0.405921,0.0741758,49.8974
0.48242,0.729549,0.0,0.429142,0.267081,0.714826,0.0446563,0.151099,64.9004
0.737443,0.295771,0.0,0.236727,0.57764,0.392442,0.526091,0.151099,64.9004
0.851598,0.330551,0.0,0.473852,0.276398,0.148547,0.470396,0.151099,72.2985
0.737443,0.295771,0.0,0.253493,0.512422,0.148547,0.735324,0.151099,64.3005
0.980137,0.0,0.0,0.16008,0.875776,0.148547,0.751882,0.151099,58.7985
0.494977,0.591263,0.0,0.271058,0.444099,0.148547,0.718515,0.151099,66.1001
0.594977,0.525876,0.0,0.344511,0.360248,0.417733,0.405921,0.151099,77.2972
0.633562,0.420701,0.0,0.256687,0.493789,0.968895,0.0275966,0.151099,54.8961
0.420776,0.558987,0.0,0.183234,0.347826,0.59186,0.526091,0.151099,72.9948
0.769406,0.492487,0.0,0.512974,0.34472,0.243895,0.28575,0.151099,71.6986
0.594977,0.525876,0.0,0.344511,0.360248,0.417733,0.405921,0.151099,77.2972
0.621005,0.526433,0.0,0.386028,0.313665,0.363663,0.408179,0.247253,64.9004
0.737443,0.295771,0.0,0.253493,0.512422,0.148547,0.735324,0.247253,65.1969
0.623288,0.260991,0.0,0.0387226,0.726708,0.148547,1,0.247253,62.501
0.8379,0.326099,0.0,0.128144,1.0,0.148547,0.618414,0.247253,70.6989
0.654338,0.270173,0.0,0.288623,0.375776,0.148547,0.832163,0.247253,57.5988
0.737443,0.295771,0.0,0.253493,0.512422,0.148547,0.735324,0.247253,65.1969
0.684475,0.263495,0.0,0.20479,0.354037,0.423837,0.647516,0.247253,75.4976
0.633562,0.420701,0.0,0.256687,0.493789,0.968895,0.0275966,0.247253,56.4957
0.420776,0.558987,0.0,0.183234,0.347826,0.59186,0.526091,0.247253,76.8007
0.769406,0.492487,0.0,0.512974,0.34472,0.243895,0.28575,0.247253,73.2982
0.594977,0.525876,0.0,0.344511,0.360248,0.417733,0.405921,0.247253,79.2966
0.274795,0.0,0.483108,0.539242,0.138509,0.482791,0.693226,0.00549451,11.5763
0.274795,0.0,0.483108,0.539242,0.138509,0.482791,0.693226,0.0741758,24.8901
0.274795,0.0,0.483108,0.539242,0.138509,0.482791,0.693226,0.271978,40.7136
0.300936,0.0,0.472664,0.607904,0.141832,0.424535,0.647667,0.0357143,22.1391
0.300936,0.0,0.472664,0.607904,0.141832,0.424535,0.647667,0.151099,27.6618
0.211598,0.0,0.502349,0.350259,0.232298,0.597093,0.782489,0.00549451,12.4519
0.211598,0.0,0.502349,0.350259,0.232298,0.597093,0.782489,0.0741758,25.7243
0.211598,0.0,0.502349,0.350259,0.232298,0.597093,0.782489,0.271978,37.342
0.202466,0.0,0.626687,0.322475,0.241304,0.840116,0.526869,0.0357143,21.0635
0.202466,0.0,0.626687,0.322475,0.241304,0.840116,0.526869,0.151099,35.3425
0.251301,0.0,0.607796,0.467545,0.176708,0.74593,0.464927,0.00549451,12.4726
0.251301,0.0,0.607796,0.467545,0.176708,0.74593,0.464927,0.0741758,24.9039
0.251301,0.0,0.607796,0.467545,0.176708,0.74593,0.464927,0.271978,39.6104
0.292169,0.0,0.591254,0.588583,0.143789,0.663953,0.41292,0.0357143,20.0844
0.292169,0.0,0.591254,0.588583,0.143789,0.663953,0.41292,0.151099,31.5366
0.201689,0.0,0.625587,0.32016,0.306832,0.834593,0.523307,0.00549451,9.44582
0.201689,0.0,0.625587,0.32016,0.306832,0.834593,0.523307,0.0741758,28.4685
0.201689,0.0,0.625587,0.32016,0.306832,0.834593,0.523307,0.271978,40.3895
0.146324,0.0,0.815942,0.436806,0.139441,0.748837,0.466859,0.0357143,25.483
0.146324,0.0,0.815942,0.436806,0.139441,0.748837,0.466859,0.151099,28.627
0.150571,0.117084,0.818741,0.0,0.17764,0.749128,0.466909,0.00549451,7.74971
0.150571,0.117084,0.818741,0.0,0.17764,0.749128,0.466909,0.0741758,24.242
0.150571,0.117084,0.818741,0.0,0.17764,0.749128,0.466909,0.271978,39.2312
0.255068,0.272816,0.122489,0.478723,0.213043,0.769767,0.48013,0.0357143,30.3852
0.255068,0.272816,0.122489,0.478723,0.213043,0.769767,0.48013,0.151099,50.773
0.25516,0.272844,0.122539,0.478962,0.206522,0.770349,0.480482,0.00549451,13.1828
0.25516,0.272844,0.122539,0.478962,0.206522,0.770349,0.480482,0.0741758,40.2309
0.25516,0.272844,0.122539,0.478962,0.206522,0.770349,0.480482,0.271978,49.9732
0.291507,0.0,0.590505,0.586667,0.190373,0.660174,0.410512,0.0357143,22.3183
0.291507,0.0,0.590505,0.586667,0.190373,0.660174,0.410512,0.151099,31.3505
0.310616,0.0,0.470315,0.518244,0.217391,0.432878,0.634747,0.00549451,19.9328
0.310616,0.0,0.470315,0.518244,0.217391,0.432878,0.634747,0.0741758,30.2335
0.310616,0.0,0.470315,0.518244,0.217391,0.432878,0.634747,0.271978,44.2988
0.3379,0.0,0.478211,0.524311,0.171739,0.453081,0.670271,0.0357143,24.9177
0.3379,0.0,0.478211,0.524311,0.171739,0.453081,0.670271,0.151099,38.328
0.252329,0.0,0.501599,0.29996,0.270497,0.601163,0.776693,0.00549451,13.5413
0.252329,0.0,0.501599,0.29996,0.270497,0.601163,0.776693,0.0741758,31.6401
0.252329,0.0,0.501599,0.29996,0.270497,0.601163,0.776693,0.271978,42.9199
0.252443,0.0,0.501699,0.3002,0.32205,0.589535,0.777195,0.0357143,25.3727
0.252443,0.0,0.501699,0.3002,0.32205,0.589535,0.777195,0.151099,44.3954
0.251142,0.0,0.623588,0.297405,0.243478,0.826744,0.515655,0.00549451,19.5191
0.251142,0.0,0.623588,0.297405,0.243478,0.826744,0.515655,0.0741758,38.5003
0.251142,0.0,0.623588,0.297405,0.243478,0.826744,0.515655,0.271978,47.8152
0.296233,0.0,0.607796,0.416846,0.208696,0.742442,0.462745,0.0357143,26.7724
0.296233,0.0,0.607796,0.416846,0.208696,0.742442,0.462745,0.151099,42.6992
0.341027,0.0,0.591054,0.532535,0.178571,0.661047,0.410763,0.00549451,17.2231
0.341027,0.0,0.591054,0.532535,0.178571,0.661047,0.410763,0.0741758,29.6544
0.341027,0.0,0.591054,0.532535,0.178571,0.661047,0.410763,0.271978,43.5818
0.341027,0.0,0.591054,0.532535,0.197205,0.661047,0.410763,0.0357143,24.4281
0.341027,0.0,0.591054,0.532535,0.197205,0.661047,0.410763,0.151099,36.6388
0.181233,0.0,0.834633,0.381956,0.234783,0.740116,0.461114,0.00549451,13.624
0.181233,0.0,0.834633,0.381956,0.234783,0.740116,0.461114,0.0741758,27.7721
0.181233,0.0,0.834633,0.381956,0.234783,0.740116,0.461114,0.271978,45.3675
0.18274,0.125793,0.609545,0.386906,0.254348,0.751163,0.468264,0.0357143,21.5048
0.18274,0.125793,0.609545,0.386906,0.254348,0.751163,0.468264,0.151099,43.499
0.152694,0.117474,0.62094,0.292056,0.336335,0.813372,0.50715,0.00549451,7.39808
0.152694,0.117474,0.62094,0.292056,0.336335,0.813372,0.50715,0.0741758,31.1161
0.152694,0.117474,0.62094,0.292056,0.336335,0.813372,0.50715,0.271978,48.153
0.430023,0.0,0.48066,0.3699,0.292236,0.46564,0.67988,0.0357143,34.6737
0.430023,0.0,0.48066,0.3699,0.292236,0.46564,0.67988,0.151099,45.0848
0.399658,0.0,0.486707,0.31018,0.367391,0.502616,0.706498,0.00549451,23.1388
0.399658,0.0,0.486707,0.31018,0.367391,0.502616,0.706498,0.0741758,48.284
0.399658,0.0,0.486707,0.31018,0.367391,0.502616,0.706498,0.271978,55.6407
0.44226,0.0,0.477961,0.397525,0.275466,0.448081,0.665329,0.0357143,35.2322
0.44226,0.0,0.477961,0.397525,0.275466,0.448081,0.665329,0.151099,48.7184
0.342032,0.0,0.49945,0.194731,0.38354,0.59593,0.767085,0.00549451,21.0221
0.342032,0.0,0.49945,0.194731,0.38354,0.59593,0.767085,0.0741758,33.9429
0.342032,0.0,0.49945,0.194731,0.38354,0.59593,0.767085,0.271978,45.3675
0.335845,0.0,0.493503,0.290299,0.397516,0.542907,0.740115,0.0357143,28.6822
0.335845,0.0,0.493503,0.290299,0.397516,0.542907,0.740115,0.151099,42.0305
0.343174,0.0,0.493503,0.195609,0.440062,0.542907,0.740115,0.00549451,21.7805
0.343174,0.0,0.493503,0.195609,0.440062,0.542907,0.740115,0.0741758,50.6006
0.343174,0.0,0.493503,0.195609,0.440062,0.542907,0.740115,0.271978,60.9497
0.330662,0.0,0.625087,0.172056,0.37236,0.830814,0.519042,0.0357143,42.2166
0.330662,0.0,0.625087,0.172056,0.37236,0.830814,0.519042,0.151099,60.3223
0.395137,0.0,0.606447,0.301238,0.307453,0.734302,0.460361,0.00549451,23.8007
0.395137,0.0,0.606447,0.301238,0.307453,0.734302,0.460361,0.0741758,51.3315
0.395137,0.0,0.606447,0.301238,0.307453,0.734302,0.460361,0.271978,58.60546
0.445571,0.0,0.587406,0.423553,0.295652,0.644767,0.400025,0.0357143,36.9904
0.445571,0.0,0.587406,0.423553,0.295652,0.644767,0.400025,0.151099,51.9589
0.255114,0.0,0.873263,0.263792,0.315528,0.734012,0.457476,0.00549451,17.5747
0.255114,0.0,0.873263,0.263792,0.315528,0.734012,0.457476,0.0741758,40.1482
0.255114,0.0,0.873263,0.263792,0.315528,0.734012,0.457476,0.271978,50.0766
0.254566,0.0,0.870765,0.262355,0.362112,0.730523,0.455294,0.0357143,33.7016
0.254566,0.0,0.870765,0.262355,0.362112,0.730523,0.455294,0.151099,51.4349
0.399977,0.272176,0.122239,0.310978,0.347516,0.757849,0.472805,0.00549451,30.4473
0.399977,0.272176,0.122239,0.310978,0.347516,0.757849,0.472805,0.0741758,63.1422
0.399977,0.272176,0.122239,0.310978,0.347516,0.757849,0.472805,0.271978,66.9481
0.265365,0.152031,0.618591,0.151697,0.369876,0.798547,0.498419,0.0357143,35.9562
0.265365,0.152031,0.618591,0.151697,0.369876,0.798547,0.498419,0.151099,61.9908
0.257763,0.149694,0.609145,0.270499,0.298447,0.620058,0.468088,0.00549451,18.016
0.257763,0.149694,0.609145,0.270499,0.298447,0.620058,0.468088,0.0741758,52.2002
0.257763,0.149694,0.609145,0.270499,0.298447,0.620058,0.468088,0.271978,56.6336
0.266781,0.0,0.62034,0.293333,0.351863,0.807267,0.504039,0.0357143,26.0484
0.266781,0.0,0.62034,0.293333,0.351863,0.807267,0.504039,0.151099,37.2662
0.625571,0.0,0.0,0.741317,0.0,0.588663,0.422378,0.00549451,16.2785
0.625571,0.0,0.0,0.741317,0.0,0.588663,0.422378,0.0741758,31.971
0.625571,0.0,0.0,0.741317,0.0,0.588663,0.422378,0.271978,43.0578
0.851598,0.0,0.294853,0.161677,0.0590062,0.863372,0.117913,0.0741758,57.2265
0.920091,0.0,0.29985,0.58483,0.0,0.665698,0.0903161,0.0741758,64.0178
0.945205,0.0,0.0,0.321357,0.254658,0.0,0.521826,0.0741758,41.36856
0.972603,0.0,0.0,0.50499,0.213043,0.34593,0.316106,0.0741758,56.8335
0.646119,0.0,0.67966,0.289421,0.621118,0.296512,0.436528,0.0741758,55.5511
0.794749,0.139121,0.0,0.62475,0.0931677,0.940116,0.0481686,0.0741758,39.376
0.527397,0.0486923,0.814593,0.361277,0.555901,0.56686,0.145509,0.0741758,47.2774
0.691781,0.0,0.0,0.42515,0.0,0.927326,0.253387,0.0741758,52.3036
0.945205,0.0,0.0,0.321357,0.256522,0.0,0.521826,0.0741758,41.36856
0.13242,0.356149,0.609695,0.481038,0.198758,0.0668605,0.715003,0.0741758,39.3967
0.3379,0.500835,0.474763,0.297405,0.293478,0.171512,0.516809,0.0741758,67.8651
0.417808,0.528659,0.0,0.329341,0.236025,0.668605,0.228299,0.0741758,53.5792
0.394977,0.500835,0.5997,0.321357,0.321429,0.0843023,0.429002,0.0741758,76.2354
0.143836,5.56483e-05,0.717491,0.335808,0.0,0.594767,0.769945,0.00549451,14.3963
0.173584,0.361157,0.592704,0.464591,0.11087,0.599709,0.383342,0.00549451,20.7256
0.160685,0.0378687,0.861419,0.279521,0.128571,0.596802,0.658304,0.00549451,21.291
0.148402,0.209794,0.834583,0.337565,0.245652,0.599709,0.441796,0.00549451,15.5201
0.201689,0.0,0.625587,0.358164,0.306832,0.80814,0.514049,0.00549451,12.5485
0.254566,0.0,0.870765,0.299082,0.362112,0.705233,0.446312,0.00549451,15.6097
0.341027,0.0,0.591054,0.568383,0.178571,0.705233,0.402158,0.00549451,11.9831
0.143836,0.35754,0.66017,0.425629,0.250932,0.595349,0.38284,0.0357143,33.088
0.149201,0.361436,0.642779,0.428822,0.241925,0.596802,0.38284,0.0357143,31.8124
0.163333,0.13926,0.867216,0.343473,0.200932,0.596512,0.500502,0.0357143,33.0052
0.16395,0.259794,0.7991,0.403912,0.302174,0.599419,0.38284,0.0357143,29.5509
0.3379,0.0,0.478211,0.559601,0.165528,0.429942,0.660311,0.0357143,24.6557
0.211598,0.0,0.502349,0.386587,0.232298,0.572674,0.772203,0.0357143,24.2833
0.143836,5.56483e-05,0.717491,0.335808,0.0,0.594767,0.769945,0.0741758,26.2001
0.173584,0.361157,0.592704,0.464591,0.11087,0.599709,0.383342,0.0741758,39.1622
0.160685,0.0378687,0.861419,0.279521,0.128571,0.596802,0.658304,0.0741758,33.6878
0.148402,0.209794,0.834583,0.337565,0.245652,0.599709,0.441796,0.0741758,41.4099
0.201689,0.0,0.625587,0.358164,0.306832,0.80814,0.514049,0.0741758,24.8487
0.254566,0.0,0.870765,0.299082,0.362112,0.705233,0.446312,0.0741758,44.6367
0.341027,0.0,0.591054,0.568383,0.178571,0.705233,0.402158,0.0741758,33.2741
0.143836,0.35754,0.66017,0.425629,0.250932,0.595349,0.38284,0.151099,53.724
0.149201,0.361436,0.642779,0.428822,0.241925,0.596802,0.38284,0.151099,51.7245
0.163333,0.13926,0.867216,0.343473,0.200932,0.596512,0.500502,0.151099,53.7722
0.16395,0.259794,0.7991,0.403912,0.302174,0.599419,0.38284,0.151099,48.9873
0.3379,0.0,0.478211,0.559601,0.165528,0.429942,0.660311,0.151099,39.64487
0.211598,0.0,0.502349,0.386587,0.232298,0.572674,0.772203,0.151099,43.3887
0.143836,5.56483e-05,0.717491,0.335808,0.0,0.594767,0.769945,0.271978,37.9557
0.173584,0.361157,0.592704,0.464591,0.11087,0.599709,0.383342,0.271978,49.9939
0.160685,0.0378687,0.861419,0.279521,0.128571,0.596802,0.658304,0.271978,37.6799
0.148402,0.209794,0.834583,0.337565,0.245652,0.599709,0.441796,0.271978,56.8128
0.201689,0.0,0.625587,0.358164,0.306832,0.80814,0.514049,0.271978,33.5637
0.254566,0.0,0.870765,0.299082,0.362112,0.705233,0.446312,0.271978,52.9587
0.341027,0.0,0.591054,0.568383,0.178571,0.705233,0.402158,0.271978,40.1482
0.785388,0.066778,0.394803,0.321357,0.361491,0.482558,0.296036,0.0741758,44.4229
0.785388,0.066778,0.394803,0.321357,0.319876,0.482558,0.296036,0.0741758,53.3861
0.785388,0.066778,0.394803,0.321357,0.361491,0.482558,0.296036,0.00549451,25.0211
0.785388,0.066778,0.394803,0.321357,0.360559,0.482558,0.296036,0.0164835,52.0072
0.785388,0.066778,0.394803,0.321357,0.361491,0.482558,0.296036,0.0164835,39.3001
0.785388,0.066778,0.394803,0.321357,0.361491,0.482558,0.296036,0.151099,56.144
0.785388,0.066778,0.394803,0.321357,0.319876,0.482558,0.296036,0.151099,54.7651
0.650685,0.0556483,0.469765,0.281437,0.432609,0.398256,0.629704,0.0741758,46.6844
0.650685,0.0556483,0.469765,0.281437,0.44472,0.398256,0.629704,0.00549451,22.7527
0.650685,0.0556483,0.469765,0.281437,0.360559,0.398256,0.629704,0.00549451,34.7703
0.650685,0.0556483,0.469765,0.281437,0.432609,0.398256,0.629704,0.0164835,45.8984
0.650685,0.0556483,0.469765,0.281437,0.44472,0.398256,0.629704,0.151099,56.3371
0.650685,0.0556483,0.469765,0.281437,0.360559,0.398256,0.629704,0.151099,61.4599
0.577626,0.0528659,0.484758,0.185629,0.380435,0.482558,0.694932,0.0741758,55.4546
0.888128,0.0723428,0.614693,0.632735,0.12205,0.0610465,0.263422,0.0741758,57.916
0.888128,0.0723428,0.614693,0.704591,0.12205,0.235465,0.263422,0.0164835,33.4888
0.888128,0.0723428,0.614693,0.632735,0.12205,0.0610465,0.263422,0.00549451,29.549
0.888128,0.0723428,0.614693,0.632735,0.12205,0.0610465,0.263422,0.151099,61.8558
0.73516,0.0612131,0.65967,0.449102,0.263354,0.235465,0.39137,0.00549451,32.0114
0.73516,0.0612131,0.65967,0.449102,0.263354,0.0610465,0.39137,0.0164835,39.0046
0.73516,0.0612131,0.65967,0.369261,0.277019,0.0610465,0.39137,0.00549451,32.1099
0.73516,0.0612131,0.65967,0.369261,0.277019,0.0610465,0.39137,0.151099,74.3649
0.228311,0.0306066,0.704648,0.672655,0.0534161,0.409884,0.519318,0.00549451,9.84966
0.228311,0.0306066,0.704648,0.672655,0.0534161,0.409884,0.519318,0.151099,23.2452
0.415525,0.0417362,0.704648,0.457086,0.169565,0.119186,0.519318,0.00549451,13.3955
0.415525,0.0417362,0.704648,0.457086,0.169565,0.119186,0.519318,0.151099,44.5205
0.586758,0.0528659,0.704648,0.257485,0.33882,0.409884,0.519318,0.0741758,59.4949
0.586758,0.0528659,0.704648,0.257485,0.33882,0.409884,0.519318,0.00549451,23.6392
0.586758,0.0528659,0.704648,0.257485,0.33882,0.409884,0.519318,0.0164835,38.6107
0.586758,0.0528659,0.704648,0.257485,0.33882,0.409884,0.519318,0.151099,66.7807
0.426941,0.0,0.0,0.560878,0.0,0.326163,0.755896,0.244505,32.0682
0.664384,0.0,0.0,0.560878,0.0,0.405814,0.480682,0.00549451,19.1991
0.664384,0.0,0.0,0.560878,0.0,0.405814,0.480682,0.0741758,39.6049
0.863014,0.0,0.0,0.560878,0.0,0.393023,0.296538,0.0164835,34.5696
0.863014,0.0,0.0,0.560878,0.0,0.393023,0.296538,0.00549451,24.4047
0.349315,0.0,0.0,0.560878,0.0,0.25814,0.880582,0.244505,21.8591
0.426941,0.0,0.0,0.560878,0.0,0.326163,0.755896,0.0164835,14.5969
0.527397,0.0,0.0,0.560878,0.0,0.378488,0.623683,0.0741758,31.9669
0.426941,0.0,0.0,0.560878,0.0,0.326163,0.755896,0.0741758,25.5734
0.664384,0.0,0.0,0.560878,0.0,0.405814,0.480682,0.0164835,27.7424
0.12968,0.662771,0.0,0.510579,0.0,0.696512,0.351982,0.0164835,9.6175
0.310959,0.441848,0.0,0.510579,0.0,0.696512,0.351982,0.0164835,15.6911
0.208904,0.807457,0.0,0.510579,0.0,0.573256,0.276719,0.0741758,32.6267
0.389954,0.506121,0.0,0.510579,0.0,0.614535,0.301806,0.0164835,19.7652
0.271233,0.409572,0.0,0.510579,0.0,0.738372,0.37707,0.0741758,25.745
0.640411,0.0,0.0,0.510579,0.0,0.717442,0.364526,0.0164835,24.0655
0.12968,0.662771,0.0,0.510579,0.0,0.696512,0.351982,0.0741758,21.0662
0.350457,0.473845,0.0,0.510579,0.0,0.655814,0.326894,0.0741758,32.0517
0.673516,0.0,0.0,0.510579,0.0,0.696512,0.351982,0.0164835,25.4479
0.442466,0.0,0.0,0.510579,0.0,0.844186,0.439789,0.0741758,25.2169
0.271233,0.409572,0.0,0.510579,0.0,0.738372,0.37707,0.0164835,13.089
0.0769406,0.566221,0.0,0.510579,0.0,0.8,0.414701,0.0164835,7.50701
0.541553,0.0,0.0,0.510579,0.0,0.779651,0.402158,0.0164835,21.1793
0.208904,0.807457,0.0,0.510579,0.0,0.573256,0.276719,0.0164835,17.2004
0.42968,0.538397,0.0,0.510579,0.0,0.573256,0.276719,0.0164835,21.8591
0.155936,0.432666,0.0,0.510579,0.0,0.655814,0.326894,0.0741758,25.7264
0.287671,0.951864,0.0,0.510579,0.0,0.45,0.201455,0.0164835,21.9171
0.6379,0.0,0.0,0.510579,0.0,0.882558,0.477421,0.0164835,14.541
0.192237,0.345298,0.0,0.510579,0.0,0.82093,0.427245,0.0164835,7.99585
0.310731,0.0,0.0,0.510579,0.0,0.923837,0.489965,0.0164835,10.3359
0.640411,0.0,0.0,0.510579,0.0,0.717442,0.364526,0.0741758,37.4379
0.488813,0.586255,0.0,0.510579,0.0,0.511628,0.239087,0.0164835,24.4378
0.155936,0.432666,0.0,0.510579,0.0,0.655814,0.326894,0.0164835,10.7303
0.541096,0.0,0.0,0.600798,0.0,0.485465,0.469142,0.00549451,13.2241
0.541096,0.0,0.0,0.600798,0.0,0.485465,0.469142,0.0357143,27.0412
0.541096,0.0,0.0,0.600798,0.0,0.485465,0.469142,0.244505,35.1702
0.541096,0.0,0.0,0.600798,0.0,0.485465,0.469142,1.0,38.8933
0.305936,0.0,0.0,0.576846,0.0,0.485465,0.730055,0.0357143,12.838
0.305936,0.0,0.0,0.576846,0.0,0.485465,0.730055,0.244505,21.946
0.305936,0.0,0.0,0.568862,0.0,0.485465,0.730055,1.0,25.0831
0.399543,0.0,0.0,0.552894,0.0,0.485465,0.657301,0.0741758,25.9657
0.399543,0.0,0.0,0.552894,0.0,0.485465,0.657301,0.244505,31.2539
0.399543,0.0,0.0,0.552894,0.0,0.485465,0.657301,0.986264,33.7016
0.347032,0.0,0.0,0.608782,0.0,0.485465,0.674862,0.244505,26.9447
0.347032,0.0,0.0,0.608782,0.0,0.485465,0.674862,1.0,29.7854
0.468037,0.0,0.0,0.568862,0.0,0.485465,0.546914,1.0,36.1492
0.468037,0.0,0.0,0.568862,0.0,0.485465,0.546914,0.0741758,27.5308
0.305936,0.0,0.0,0.568862,0.0,0.485465,0.730055,0.0164835,9.99051
0.223744,0.0,0.0,0.46507,0.0,0.94186,0.629704,0.0741758,12.2451
0.280822,0.0,0.0,0.473054,0.0,0.906977,0.599599,0.0741758,17.3403
0.509132,0.0,0.0,0.497006,0.0,0.761628,0.47416,0.0741758,30.5714
0.394977,0.0,0.0,0.489022,0.0,0.834302,0.536879,0.0741758,24.4971
0.452055,0.0,0.0,0.497006,0.0,0.796512,0.504265,0.0741758,26.8482
0.623288,0.0,0.0,0.512974,0.0,0.688953,0.41144,0.0741758,38.2108
0.680365,0.0,0.0,0.520958,0.0,0.651163,0.378826,0.0164835,30.1439
0.3379,0.0,0.0,0.481038,0.0,0.869186,0.566984,0.0741758,20.8704
0.56621,0.0,0.0,0.512974,0.0,0.723837,0.441545,0.0741758,34.2945
0.338356,0.464107,0.0,0.652695,0.0,0.513372,0.251129,0.244505,47.7145
0.089726,0.589872,0.0,0.652695,0.0,0.496512,0.387607,0.0741758,29.8922
0.047032,0.511686,0.0,0.652695,0.0,0.456977,0.51706,0.244505,33.1921
0.0,0.42571,0.0,0.560878,0.0,0.25,0.873056,0.00549451,4.56502
0.047032,0.511686,0.0,0.652695,0.0,0.456977,0.51706,0.0741758,24.2909
0.223744,0.370061,0.0,0.560878,0.0,0.477907,0.532363,0.00549451,11.4143
0.464155,0.566221,0.0,0.652695,0.0,0.477907,0.0928249,0.0164835,25.894
0.0319635,0.481358,0.0,0.560878,0.0,0.316279,0.747366,0.244505,31.0237
0.125571,0.65665,0.0,0.560878,0.0,0.390698,0.469644,0.0741758,33.6644
0.338356,0.464107,0.0,0.652695,0.0,0.513372,0.251129,0.0164835,19.3501
0.205479,0.801336,0.0,0.560878,0.0,0.374419,0.306322,0.00549451,12.7884
0.116438,0.283806,0.0,0.560878,0.0,0.252907,0.875815,0.00549451,4.78221
0.464155,0.566221,0.0,0.652695,0.0,0.477907,0.0928249,0.0741758,43.377
0.1621,0.32276,0.0,0.560878,0.0,0.423837,0.659308,0.00549451,6.94095
0.305936,0.436839,0.0,0.560878,0.0,0.498837,0.389112,0.00549451,13.5654
0.147945,0.69616,0.0,0.652695,0.0,0.507558,0.247366,0.0164835,15.7483
0.424658,0.534224,0.0,0.560878,0.0,0.380814,0.310587,0.0741758,38.8044
0.0,0.42571,0.0,0.560878,0.0,0.25,0.873056,0.0741758,17.2755
0.186986,0.341124,0.0,0.652695,0.0,0.459884,0.516809,0.0741758,24.0462
0.205479,0.801336,0.0,0.560878,0.0,0.374419,0.306322,0.244505,50.7323
0.464155,0.566221,0.0,0.652695,0.0,0.477907,0.0928249,0.00549451,14.1439
0.0143836,0.451864,0.0,0.652695,0.0,0.398837,0.639739,0.00549451,2.33181
0.424658,0.534224,0.0,0.560878,0.0,0.380814,0.310587,0.0164835,23.5235
0.251142,0.393155,0.0,0.652695,0.0,0.501163,0.39137,0.244505,39.7
0.305936,0.436839,0.0,0.560878,0.0,0.498837,0.389112,0.0741758,32.8846
0.186986,0.341124,0.0,0.652695,0.0,0.459884,0.516809,0.0164835,10.7875
0.231735,0.849471,0.0,0.652695,0.0,0.472093,0.0903161,0.0741758,41.6843
0.0707763,0.556483,0.0,0.560878,0.0,0.367442,0.615153,0.00549451,6.88373
0.223744,0.370061,0.0,0.560878,0.0,0.477907,0.532363,0.0164835,17.1659
0.338356,0.464107,0.0,0.652695,0.0,0.513372,0.251129,0.00549451,9.73126
0.116438,0.283806,0.0,0.560878,0.0,0.252907,0.875815,0.244505,26.3228
0.0319635,0.481358,0.0,0.560878,0.0,0.316279,0.747366,0.00549451,6.28044
0.338356,0.464107,0.0,0.652695,0.0,0.513372,0.251129,0.0741758,36.9642
0.205479,0.801336,0.0,0.560878,0.0,0.374419,0.306322,0.0164835,21.4806
0.116438,0.283806,0.0,0.560878,0.0,0.252907,0.875815,0.0164835,8.37438
0.0319635,0.481358,0.0,0.560878,0.0,0.316279,0.747366,0.0164835,10.0898
0.047032,0.511686,0.0,0.652695,0.0,0.456977,0.51706,0.0164835,10.3546
0.231735,0.849471,0.0,0.652695,0.0,0.472093,0.0903161,0.244505,51.8638
0.474886,0.0,0.0,0.560878,0.0,0.613372,0.592072,0.0164835,17.2438
0.474886,0.0,0.0,0.560878,0.0,0.613372,0.592072,0.244505,35.7631
0.522831,0.0,0.0,0.560878,0.0,0.651163,0.569493,0.00549451,14.3066
0.522831,0.0,0.0,0.560878,0.0,0.651163,0.569493,0.0741758,31.7435
0.522831,0.0,0.0,0.560878,0.0,0.651163,0.569493,0.326923,39.3829
0.563927,0.0,0.0,0.560878,0.0,0.741279,0.539388,0.0164835,9.01145
0.563927,0.0,0.0,0.560878,0.0,0.741279,0.539388,0.244505,40.6584
0.310502,0.0,0.0,0.512974,0.0,0.924419,0.489212,0.0164835,12.052
0.442922,0.0,0.0,0.512974,0.0,0.840116,0.439037,0.0164835,18.9123
0.445205,0.0,0.0,0.512974,0.0,0.694767,0.351229,0.0164835,30.9575
0.863014,0.0,0.0,0.560878,0.0,0.392442,0.318615,0.244505,54.2756
0.408676,0.0,0.0,0.512974,0.0,0.880814,0.451581,0.0164835,14.4997
0.908676,0.0,0.0,0.62475,0.0,0.94186,0.0476668,0.0,12.6381
0.908676,0.0,0.0,0.62475,0.0,0.94186,0.0476668,0.0164835,33.2121
0.908676,0.0,0.0,0.62475,0.0,0.94186,0.0476668,0.0741758,44.092
1.0,0.0,0.0,0.409182,0.0,0.94186,0.0476668,0.0357143,59.7638
1.0,0.0,0.0,0.409182,0.0,0.94186,0.0476668,0.244505,69.6578
1.0,0.0,0.0,0.409182,0.0,0.94186,0.0476668,0.739011,74.1669
0.56621,0.0,0.0,0.648703,0.0,0.502907,0.454089,0.0357143,22.5321
0.56621,0.0,0.0,0.648703,0.0,0.502907,0.454089,0.151099,29.9784
0.56621,0.0,0.0,0.648703,0.0,0.502907,0.454089,0.491758,32.7225
0.646119,0.0,0.0,0.512974,0.0,0.479651,0.423984,0.00549451,14.6996
0.646119,0.0,0.0,0.512974,0.0,0.479651,0.423984,0.0357143,27.9238
0.522831,0.0,0.0,0.560878,0.0,0.514535,0.579528,0.491758,38.9968
0.563927,0.0,0.0,0.560878,0.0,0.715116,0.531862,0.00549451,14.9892
0.639269,0.0,0.0,0.512974,0.0,0.715116,0.363773,0.0164835,24.0007
0.639269,0.0,0.0,0.512974,0.0,0.901163,0.476668,0.0164835,11.466
0.541096,0.0,0.0,0.50499,0.0,0.77907,0.401405,0.0164835,21.16
0.440639,0.0,0.0,0.50499,0.0,0.77907,0.439037,0.0164835,14.7962
0.310502,0.0,0.0,0.50499,0.0,0.921512,0.489212,0.0741758,17.5403
0.442922,0.0,0.0,0.560878,0.0,0.825581,0.429002,0.0741758,21.6495
0.522831,0.0,0.0,0.560878,0.0,0.226744,0.579528,0.00549451,13.5206
0.522831,0.0,0.0,0.560878,0.0,0.514535,0.579528,0.0741758,31.447
0.563927,0.0,0.0,0.560878,0.0,0.715116,0.531862,0.0164835,18.1263
0.563927,0.0,0.0,0.560878,0.0,0.715116,0.531862,0.244505,39.4863
0.563927,0.0,0.0,0.560878,0.0,0.715116,0.531862,0.986264,42.127
0.456621,0.0,0.0,0.648703,0.0,0.502907,0.559458,0.491758,26.7448
0.908676,0.0,0.0,0.62475,0.0,0.94186,0.0476668,0.244505,47.2222
0.908676,0.0,0.0,0.62475,0.0,0.94186,0.0476668,0.739011,55.15808
0.342466,0.0,0.0,0.50499,0.0,0.901163,0.476668,0.0164835,13.7137
0.541096,0.0,0.0,0.50499,0.0,0.752907,0.401405,0.0741758,31.6469
0.664384,0.0,0.0,0.560878,0.0,0.40407,0.41144,0.0741758,39.5828
0.639269,0.0,0.0,0.50499,0.0,0.715116,0.363773,0.0164835,24.0007
0.342466,0.0,0.0,0.512974,0.0,0.901163,0.476668,0.0164835,11.466
0.474886,0.0,0.0,0.560878,0.0,0.491279,0.642248,0.0164835,14.9892
0.474886,0.0,0.0,0.560878,0.0,0.491279,0.642248,0.244505,34.6806
0.474886,0.0,0.0,0.560878,0.0,0.491279,0.642248,0.986264,38.1142
0.965753,0.0,0.0,0.536926,0.0,0.94186,0.0476668,0.0164835,42.4235
0.965753,0.0,0.0,0.536926,0.0,0.94186,0.0476668,0.0741758,55.9441
0.965753,0.0,0.0,0.536926,0.0,0.94186,0.0476668,0.739011,67.1136
0.502283,0.0,0.0,0.648703,0.0,0.502907,0.516809,0.0741758,25.1797
0.456621,0.0,0.0,0.648703,0.0,0.502907,0.559458,0.0741758,21.753
0.863014,0.0,0.0,0.560878,0.0,0.392442,0.318615,0.00549451,24.3937
0.958904,0.0,0.0,0.193613,0.0,0.276163,0.757652,0.0741758,74.9874
0.136986,0.528659,0.73963,0.457086,0.590062,0.107558,0.368791,0.0741758,33.7567
0.10274,0.319978,0.444778,0.640719,0.279503,0.171512,0.589563,0.0741758,19.9879
0.474886,0.397885,0.554723,0.369261,0.68323,0.328488,0.143001,0.0741758,33.6878
0.461187,0.389538,0.0,0.736527,0.186335,0.273256,0.321124,0.0741758,33.4189
0.130137,0.41458,0.57971,0.42515,0.465839,0.44186,0.316106,0.0741758,27.6756
0.474886,0.397885,0.0,0.369261,0.310559,0.328488,0.526844,0.0741758,45.2986
0.111872,0.0,0.91954,0.361277,0.372671,0.552326,0.446563,0.0741758,15.5684
0.447489,0.381191,0.534733,0.632735,0.186335,0.223837,0.153036,0.0741758,53.524
0.60274,0.520312,0.0,0.552894,0.217391,0.0668605,0.408931,0.0741758,65.907
0.342466,0.269894,0.37981,0.576846,0.248447,0.0988372,0.569493,0.0741758,33.3982
0.123288,0.676127,0.0,0.46507,0.341615,0.642442,0.260913,0.0741758,37.3627
0.447489,0.0,0.534733,0.512974,0.186335,0.226744,0.554441,0.0741758,42.6372
0.422374,0.336672,0.469765,0.528942,0.279503,0.299419,0.255896,0.0741758,41.9408
0.579909,0.0,0.709645,0.568862,0.341615,0.0,0.461616,0.0741758,40.8652
0.502283,0.41458,0.0,0.512974,0.248447,0.436047,0.28851,0.0741758,52.4209
0.484018,0.0,0.564718,0.38523,0.310559,0.360465,0.47416,0.0741758,38.459
0.086758,0.456316,0.63968,0.92016,0.186335,0.197674,0.155544,0.0741758,35.2253
0.447489,0.0,0.534733,0.704591,0.341615,0.229651,0.376317,0.0741758,31.8745
0.13242,0.695604,0.0,0.369261,0.372671,0.72093,0.235825,0.0741758,39.4518
0.39726,0.32276,0.449775,0.46507,0.279503,0.200581,0.436528,0.0741758,44.2781
0.107306,0.386756,0.544728,0.568862,0.186335,0.264535,0.466633,0.0741758,23.6904
0.363014,0.278242,0.389805,0.632735,0.279503,0.18314,0.418966,0.0741758,32.3985
0.481735,0.0,0.564718,0.449102,0.248447,0.584302,0.238334,0.0741758,36.8042
0.100457,0.639955,0.0,0.640719,0.0931677,0.0755814,0.697441,0.0741758,33.0604
0.0707763,0.584307,0.0,0.592814,0.0931677,0.430233,0.504265,0.0741758,31.0264
0.114155,0.0,0.55972,0.497006,0.248447,0.555233,0.556949,0.0741758,12.1761
0.086758,0.370061,0.514743,0.62475,0.217391,0.334302,0.398896,0.0741758,36.4388
0.452055,0.0,0.5997,0.720559,0.310559,0.223837,0.336177,0.0741758,23.8352
0.105023,0.0,0.684658,0.289421,0.496894,0.584302,0.592072,0.0741758,17.954
0.116438,0.40345,0.0,0.449102,0.248447,0.578488,0.572002,0.0741758,19.0089
0.127854,0.0,0.974513,0.784431,0.341615,0.281977,0.298545,0.0741758,8.53571
0.390411,0.0,0.449775,0.616766,0.341615,0.377907,0.421475,0.0741758,32.2399
0.0936073,0.470228,0.714643,0.552894,0.248447,0.482558,0.12293,0.0741758,29.7233
0.481735,0.447969,0.0,0.449102,0.310559,0.337209,0.413949,0.0741758,52.4415
0.534247,0.0,0.0,0.481038,0.0931677,0.537791,0.559458,0.0741758,44.8642
0.109589,0.659432,0.0,0.417166,0.372671,0.77907,0.203211,0.0741758,37.4317
0.522831,0.473011,0.0,0.58483,0.248447,0.0290698,0.521826,0.0741758,56.6129
0.121005,0.509182,0.0,0.568862,0.279503,0.22093,0.687406,0.0741758,23.7869
0.374429,0.31163,0.434783,0.449102,0.310559,0.31686,0.378826,0.0741758,39.4173
0.481735,0.40345,0.0,0.0419162,0.248447,0.578488,0.572002,0.0741758,44.5195
0.0958904,0.378408,0.529735,0.449102,0.217391,0.406977,0.451581,0.0741758,26.1449
0.399543,0.325543,0.454773,0.552894,0.217391,0.421512,0.180632,0.0741758,43.5749
0.481735,0.40345,0.0,0.449102,0.248447,0.584302,0.238334,0.0741758,41.0514
0.426941,0.372844,0.0,0.58483,0.186335,0.357558,0.416458,0.0741758,46.2432
0.0981735,0.0,0.894553,0.640719,0.248447,0.0668605,0.689915,0.0741758,10.5352
0.0776256,0.450751,0.629685,0.401198,0.310559,0.354651,0.426493,0.0741758,29.0683
0.349315,0.275459,0.384808,0.536926,0.186335,0.343023,0.388861,0.0741758,33.7981
0.0776256,0.545353,0.489755,0.616766,0.186335,0.133721,0.47416,0.0741758,26.9654
0.136986,0.595437,0.81959,0.640719,0.310559,0.0552326,0.215755,0.0741758,30.6472
0.107306,0.42571,0.969515,0.560878,0.248447,0.389535,0.0727546,0.0741758,24.5798
0.130137,0.581525,0.804598,0.632735,0.217391,0.136628,0.188159,0.0741758,30.8816
0.118721,0.48414,0.924538,0.848303,0.217391,0.127907,0.0451581,0.0741758,24.3385
0.187215,0.239288,0.949525,0.728543,0.186335,0.354651,0.0727546,0.0741758,22.932
0.307991,0.255147,0.357321,0.999202,0.186335,0.150872,0.25439,0.0741758,28.6298
0.120548,0.510295,0.0,0.571257,0.282609,0.716279,0.257652,0.0741758,18.2877
0.442922,0.0,0.533233,0.795609,0.326087,0.052907,0.462619,0.0741758,31.4201
0.48242,0.40345,0.0,0.453094,0.248447,0.192442,0.57702,0.0741758,40.9252
0.116667,0.40345,0.564718,0.453094,0.248447,0.584012,0.237582,0.0741758,25.5596
0.108447,0.65665,0.0,0.431537,0.391304,0.13314,0.749373,0.0741758,32.9638
0.116667,0.40345,0.564718,0.453094,0.248447,0.192442,0.57702,0.0741758,26.2332
0.512557,0.0,0.689155,0.616766,0.335404,0.000290698,0.497993,0.0741758,38.6307
0.365068,0.307457,0.430285,0.588024,0.15528,0.273837,0.347717,0.0741758,33.7188
0.111187,0.0,0.926037,0.358882,0.484472,0.795058,0.210738,0.0741758,13.4613
0.107306,0.327212,0.458271,0.488224,0.220497,0.443023,0.467386,0.0741758,23.5242
0.360502,0.279911,0.391804,0.39002,0.322981,0.39157,0.423733,0.0741758,49.7733
0.415525,0.333055,0.0,0.371657,0.223602,0.492442,0.502258,0.0741758,40.9349
0.0977169,0.0,0.667666,0.471457,0.34472,0.518895,0.54566,0.0741758,13.2021
0.0952055,0.473567,0.662669,0.557685,0.263975,0.0380814,0.530105,0.0741758,29.8709
0.120548,0.0,0.713643,0.571257,0.282609,0.716279,0.257652,0.0741758,12.4595
0.0746575,0.0,0.828086,0.466667,0.310559,0.465116,0.529102,0.0741758,13.2938
0.484018,0.404285,0.565717,0.456287,0.248447,0.197965,0.241345,0.0741758,46.2342
0.0997717,0.480245,0.0,0.48024,0.10559,0.537209,0.558956,0.0741758,23.7442
0.105251,0.0,0.910045,0.476248,0.465839,0.110174,0.728299,0.0741758,15.5263
0.447717,0.0,0.537231,0.334132,0.397516,0.442442,0.476668,0.0741758,35.8659
0.121461,0.511686,0.715642,0.57525,0.285714,0.228488,0.262168,0.0741758,28.9911
0.104566,0.487201,0.0,0.39481,0.068323,0.578488,0.588309,0.0741758,26.9227
0.48105,0.0,0.0,0.4499,0.248447,0.577616,0.572504,0.0741758,25.1038
0.120548,0.0,0.713643,0.571257,0.282609,0.221512,0.686653,0.0741758,9.73816
0.389954,0.292432,0.408796,0.702196,0.279503,0.299419,0.215003,0.0741758,37.171
0.117808,0.401224,0.561219,0.78523,0.313665,0.355233,0.160311,0.0741758,16.504
0.113699,0.495548,0.693153,0.365269,0.568323,0.415698,0.252383,0.0741758,36.3499
0.0949772,0.0,0.874063,0.292615,0.555901,0.411919,0.62845,0.0741758,15.4236
0.621689,0.0,0.0,0.546507,0.208075,0.61686,0.342198,0.0741758,39.0561
0.115525,0.664162,0.0,0.62475,0.195652,0.583721,0.225539,0.0741758,26.8599
0.463014,0.0,0.497751,0.592814,0.304348,0.460465,0.278976,0.0741758,30.1232
0.0910959,0.46355,0.648176,0.413174,0.338509,0.237209,0.47993,0.0741758,44.6119
0.500685,0.456873,0.0,0.548902,0.142857,0.200581,0.451581,0.0741758,57.2182
0.405936,0.358653,0.501749,0.404391,0.295031,0.0700581,0.529102,0.0741758,52.827
0.142922,0.0,0.751624,0.477844,0.363354,0.646221,0.338435,0.0741758,18.0339
0.132877,0.523094,0.731634,0.650299,0.350932,0.0805233,0.290266,0.0741758,35.3143
0.492922,0.0,0.632184,0.702196,0.177019,0.172965,0.357752,0.0741758,40.062
0.510502,0.462994,0.0,0.417166,0.276398,0.234302,0.491721,0.0741758,61.2358
0.0684932,0.574569,0.804098,0.456287,0.170807,0.19157,0.355243,0.0741758,33.3065
0.142009,0.0,1.0,0.474651,0.391304,0.140407,0.632213,0.0741758,15.0913
0.500913,0.0,0.63918,0.48503,0.357143,0.200872,0.465881,0.0741758,37.2655
0.425571,0.336672,0.0,0.444311,0.217391,0.310756,0.590818,0.0741758,42.1401
0.371005,0.308848,0.432284,0.588822,0.18323,0.0918605,0.492725,0.0741758,41.5423
0.146119,0.722593,0.0,0.490619,0.39441,0.168023,0.584044,0.0741758,37.917
0.50274,0.0,0.577711,0.592814,0.322981,0.0491279,0.550426,0.0741758,31.1788
0.130365,0.519477,0.0,0.42994,0.350932,0.548256,0.488961,0.0741758,32.768
0.362785,0.279633,0.391304,0.629541,0.267081,0.184593,0.420221,0.0741758,32.4012