File: 02_normalization/z_score_norm.csv
Cement (component 1)(kg in a m^3 mixture),Blast Furnace Slag (component 2)(kg in a m^3 mixture),Fly Ash (component 3)(kg in a m^3 mixture),Water  (component 4)(kg in a m^3 mixture),Superplasticizer (component 5)(kg in a m^3 mixture),Coarse Aggregate  (component 6)(kg in a m^3 mixture),Fine Aggregate (component 7)(kg in a m^3 mixture),Age (day),"Concrete compressive strength(MPa, megapascals) "
2.47792,-0.856886,-0.847132,-0.916663,-0.620225,0.86316,-1.21766,-0.279733,79.9861
0.491443,0.795533,-0.847132,2.17537,-1.03894,-0.526514,-2.24091,3.55307,40.2695
-0.790432,0.678414,-0.847132,0.488805,-1.03894,0.0705312,0.647908,4.97849,44.2961
0.946178,0.244726,-0.847132,2.17537,-1.03894,-0.526514,-2.24091,5.05768,43.6983
-0.145186,0.465049,-0.847132,2.17537,-1.03894,-0.526514,-1.29253,-0.279733,45.8543
-0.790432,0.678414,-0.847132,0.488805,-1.03894,0.0705312,0.647908,0.702224,38.0742
1.40091,-0.30608,-0.847132,2.17537,-1.03894,-0.526514,-2.24091,3.55307,43.013
0.218602,0.0244038,-0.847132,2.17537,-1.03894,-0.526514,-1.29253,-0.279733,47.8138
-1.35526,1.5713,-0.847132,0.488805,-1.03894,0.953232,0.415805,0.702224,39.358
0.946178,0.244726,-0.847132,2.17537,-1.03894,-0.526514,-2.24091,0.702224,40.5633
1.40091,-0.30608,-0.847132,2.17537,-1.03894,-0.526514,-2.24091,2.12764,41.8367
-1.35526,1.5713,-0.847132,0.488805,-1.03894,0.953232,0.415805,-0.675683,8.06342
0.946178,-0.856886,-0.847132,2.17537,-1.03894,-0.526514,-1.29253,5.05768,52.5167
0.946178,0.244726,-0.847132,2.17537,-1.03894,-0.526514,-2.24091,3.55307,41.1514
1.40091,-0.30608,-0.847132,2.17537,-1.03894,-0.526514,-2.24091,-0.279733,37.4275
0.218602,0.0244038,-0.847132,2.17537,-1.03894,-0.526514,-1.29253,5.05768,55.2601
-0.790432,0.678414,-0.847132,0.488805,-1.03894,0.0705312,0.647908,2.12764,41.7195
-0.872763,1.34634,-0.847132,2.17537,-1.03894,-0.526514,-1.29253,5.05768,53.6923
-0.418027,1.89715,-0.847132,2.17537,-1.03894,-0.526514,-2.24091,-0.279733,30.0798
1.85565,-0.856886,-0.847132,2.17537,-1.03894,-0.526514,-2.24091,0.702224,42.229
0.58239,-0.416241,-0.847132,2.17537,-1.03894,-0.526514,-1.29253,0.702224,50.4593
-0.418027,1.89715,-0.847132,2.17537,-1.03894,-0.526514,-2.24091,5.05768,38.9954
1.40091,-0.30608,-0.847132,2.17537,-1.03894,-0.526514,-2.24091,0.702224,41.543
0.649404,-0.856886,-0.847132,0.488805,-1.03894,0.953232,0.415805,-0.675683,15.0492
-0.418027,1.89715,-0.847132,2.17537,-1.03894,-0.526514,-2.24091,-0.612331,26.258
0.491443,0.795533,-0.847132,2.17537,-1.03894,-0.526514,-2.24091,2.12764,39.7793
-0.418027,1.89715,-0.847132,2.17537,-1.03894,-0.526514,-2.24091,0.702224,33.1169
-1.35526,1.5713,-0.847132,0.488805,-1.03894,0.953232,0.415805,-0.612331,14.5893
1.85565,-0.856886,-0.847132,2.17537,-1.03894,-0.526514,-2.24091,5.05768,41.9346
0.218602,0.0244038,-0.847132,2.17537,-1.03894,-0.526514,-1.29253,2.12764,50.9488
0.218602,0.0244038,-0.847132,2.17537,-1.03894,-0.526514,-1.29253,3.55307,54.3783
0.276042,-0.856886,-0.847132,0.488805,-1.03894,-0.0246872,0.961124,-0.675683,9.8664
-0.145186,0.465049,-0.847132,2.17537,-1.03894,-0.526514,-1.29253,2.12764,48.6956
-1.35526,1.5713,-0.847132,0.488805,-1.03894,0.953232,0.415805,4.97849,44.698
-0.872763,1.34634,-0.847132,2.17537,-1.03894,-0.526514,-1.29253,-0.279733,40.857
0.888738,1.33706,-0.847132,-0.537187,0.65268,-0.602431,-0.210627,-0.675683,34.398
1.37698,0.37576,-0.847132,-1.31488,1.7246,-1.55462,1.4166,-0.675683,33.3982
0.898311,0.230811,-0.847132,-2.57512,2.88027,-1.55462,2.7331,-0.675683,28.9994
1.79821,0.502156,-0.847132,-2.05041,4.35416,-1.55462,0.835089,-0.675683,40.1965
1.02851,0.269078,-0.847132,-1.10874,0.987656,-1.55462,1.89828,-0.675683,28.0961
1.37698,0.37576,-0.847132,-1.31488,1.7246,-1.55462,1.4166,-0.675683,33.3982
1.15488,0.241248,-0.847132,-1.60066,0.870414,-0.336077,0.979842,-0.675683,41.0997
0.407197,2.42244,-0.847132,0.104644,0.686178,-0.388833,-1.41857,-0.675683,28.2961
0.779602,1.33474,-0.847132,-0.780801,0.903912,-0.363099,-0.221858,-0.675683,35.3012
0.779602,1.33474,-0.847132,-0.780801,0.903912,-0.363099,-0.221858,-0.675683,35.3012
1.04095,1.33474,-0.847132,-1.67093,2.64578,-0.363099,-0.221858,-0.675683,40.5963
0.543139,1.33474,-0.847132,-0.312312,0.552188,-0.363099,-0.221858,-0.675683,24.0972
0.307634,2.18356,-0.847132,-0.284203,0.401449,0.951945,-2.01879,-0.612331,42.7958
1.37698,0.37576,-0.847132,-1.41326,2.07633,-0.475045,0.375873,-0.612331,46.8016
1.85565,0.520709,-0.847132,-0.0218484,0.451695,-1.55462,0.0988453,-0.612331,55.5993
1.37698,0.37576,-0.847132,-1.31488,1.7246,-1.55462,1.4166,-0.612331,49.201
2.39463,-0.856886,-0.847132,-1.86301,3.68421,-1.55462,1.49896,-0.612331,46.8982
0.360288,1.60725,-0.847132,-1.21181,1.35613,-1.55462,1.33299,-0.612331,33.3982
0.779602,1.33474,-0.847132,-0.780801,0.903912,-0.363099,-0.221858,-0.612331,55.8958
0.941392,0.896417,-0.847132,-1.29614,1.62411,2.07655,-2.10365,-0.612331,47.0981
0.0491532,1.47273,-0.847132,-1.72715,0.836917,0.407656,0.375873,-0.612331,37.997
1.51101,1.19559,-0.847132,0.207711,0.820168,-1.13257,-0.819588,-0.612331,56.0958
0.779602,1.33474,-0.847132,-0.780801,0.903912,-0.363099,-0.221858,-0.612331,22.8975
0.888738,1.33706,-0.847132,-0.537187,0.65268,-0.602431,-0.210627,-0.279733,61.0945
1.37698,0.37576,-0.847132,-1.31488,1.7246,-1.55462,1.4166,-0.279733,60.2947
0.898311,0.230811,-0.847132,-2.57512,2.88027,-1.55462,2.7331,-0.279733,56.6956
1.79821,0.502156,-0.847132,-2.05041,4.35416,-1.55462,0.835089,-0.279733,66.8999
1.02851,0.269078,-0.847132,-1.10874,0.987656,-1.55462,1.89828,-0.279733,50.6972
1.37698,0.37576,-0.847132,-1.31488,1.7246,-1.55462,1.4166,-0.279733,60.2947
1.15488,0.241248,-0.847132,-1.60066,0.870414,-0.336077,0.979842,-0.279733,68.4994
0.407197,2.42244,-0.847132,0.104644,0.686178,-0.388833,-1.41857,-0.279733,74.6978
0.779602,1.33474,-0.847132,-0.780801,0.903912,-0.363099,-0.221858,-0.279733,71.2987
0.779602,1.33474,-0.847132,-0.780801,0.903912,-0.363099,-0.221858,-0.279733,71.2987
1.04095,1.33474,-0.847132,-1.67093,2.64578,-0.363099,-0.221858,-0.279733,74.4979
0.543139,1.33474,-0.847132,-0.312312,0.552188,-0.363099,-0.221858,-0.279733,49.8974
0.307634,2.18356,-0.847132,-0.284203,0.401449,0.951945,-2.01879,0.163731,64.9004
1.37698,0.37576,-0.847132,-1.41326,2.07633,-0.475045,0.375873,0.163731,64.9004
1.85565,0.520709,-0.847132,-0.0218484,0.451695,-1.55462,0.0988453,0.163731,72.2985
1.37698,0.37576,-0.847132,-1.31488,1.7246,-1.55462,1.4166,0.163731,64.3005
2.39463,-0.856886,-0.847132,-1.86301,3.68421,-1.55462,1.49896,0.163731,58.7985
0.360288,1.60725,-0.847132,-1.21181,1.35613,-1.55462,1.33299,0.163731,66.1001
0.779602,1.33474,-0.847132,-0.780801,0.903912,-0.363099,-0.221858,0.163731,77.2972
0.941392,0.896417,-0.847132,-1.29614,1.62411,2.07655,-2.10365,0.163731,54.8961
0.0491532,1.47273,-0.847132,-1.72715,0.836917,0.407656,0.375873,0.163731,72.9948
1.51101,1.19559,-0.847132,0.207711,0.820168,-1.13257,-0.819588,0.163731,71.6986
0.779602,1.33474,-0.847132,-0.780801,0.903912,-0.363099,-0.221858,0.163731,77.2972
0.888738,1.33706,-0.847132,-0.537187,0.65268,-0.602431,-0.210627,0.718062,64.9004
1.37698,0.37576,-0.847132,-1.31488,1.7246,-1.55462,1.4166,0.718062,65.1969
0.898311,0.230811,-0.847132,-2.57512,2.88027,-1.55462,2.7331,0.718062,62.501
1.79821,0.502156,-0.847132,-2.05041,4.35416,-1.55462,0.835089,0.718062,70.6989
1.02851,0.269078,-0.847132,-1.10874,0.987656,-1.55462,1.89828,0.718062,57.5988
1.37698,0.37576,-0.847132,-1.31488,1.7246,-1.55462,1.4166,0.718062,65.1969
1.15488,0.241248,-0.847132,-1.60066,0.870414,-0.336077,0.979842,0.718062,75.4976
0.941392,0.896417,-0.847132,-1.29614,1.62411,2.07655,-2.10365,0.718062,56.4957
0.0491532,1.47273,-0.847132,-1.72715,0.836917,0.407656,0.375873,0.718062,76.8007
1.51101,1.19559,-0.847132,0.207711,0.820168,-1.13257,-0.819588,0.718062,73.2982
0.779602,1.33474,-0.847132,-0.780801,0.903912,-0.363099,-0.221858,0.718062,79.2966
-0.562968,-0.856886,0.664154,0.361844,-0.29195,-0.0751272,1.2072,-0.675683,11.5763
-0.562968,-0.856886,0.664154,0.361844,-0.29195,-0.0751272,1.2072,-0.279733,24.8901
-0.562968,-0.856886,0.664154,0.361844,-0.29195,-0.0751272,1.2072,0.860604,40.7136
-0.453353,-0.856886,0.63148,0.764745,-0.274028,-0.332989,0.980591,-0.501465,22.1391
-0.453353,-0.856886,0.63148,0.764745,-0.274028,-0.332989,0.980591,0.163731,27.6618
-0.827959,-0.856886,0.724343,-0.74707,0.213863,0.430817,1.6512,-0.675683,12.4519
-0.827959,-0.856886,0.724343,-0.74707,0.213863,0.430817,1.6512,-0.279733,25.7243
-0.827959,-0.856886,0.724343,-0.74707,0.213863,0.430817,1.6512,0.860604,37.342
-0.866253,-0.856886,1.1133,-0.910104,0.262434,1.50653,0.379741,-0.501465,21.0635
-0.866253,-0.856886,1.1133,-0.910104,0.262434,1.50653,0.379741,0.163731,35.3425
-0.661478,-0.856886,1.05421,-0.0588591,-0.0859398,1.08963,0.0716417,-0.675683,12.4726
-0.661478,-0.856886,1.05421,-0.0588591,-0.0859398,1.08963,0.0716417,-0.279733,24.9039
-0.661478,-0.856886,1.05421,-0.0588591,-0.0859398,1.08963,0.0716417,0.860604,39.6104
-0.490115,-0.856886,1.00246,0.651371,-0.263477,0.726766,-0.187042,-0.501465,20.0844
-0.490115,-0.856886,1.00246,0.651371,-0.263477,0.726766,-0.187042,0.163731,31.5366
-0.869508,-0.856886,1.10986,-0.923691,0.615833,1.48208,0.362021,-0.675683,9.44582
-0.869508,-0.856886,1.10986,-0.923691,0.615833,1.48208,0.362021,-0.279733,28.4685
-0.869508,-0.856886,1.10986,-0.923691,0.615833,1.48208,0.362021,0.860604,40.3895
-1.10166,-0.856886,1.70534,-0.239228,-0.286925,1.10249,0.0812503,-0.501465,25.483
-1.10166,-0.856886,1.70534,-0.239228,-0.286925,1.10249,0.0812503,0.163731,28.627
-1.08386,-0.36893,1.7141,-2.80233,-0.0809152,1.10378,0.0814999,-0.675683,7.74971
-1.08386,-0.36893,1.7141,-2.80233,-0.0809152,1.10378,0.0814999,-0.279733,24.242
-1.08386,-0.36893,1.7141,-2.80233,-0.0809152,1.10378,0.0814999,0.860604,39.2312
-0.645682,0.280094,-0.463956,0.00672942,0.110021,1.19514,0.147263,-0.501465,30.3852
-0.645682,0.280094,-0.463956,0.00672942,0.110021,1.19514,0.147263,0.163731,50.773
-0.645299,0.28021,-0.4638,0.00813489,0.0748483,1.19771,0.14901,-0.675683,13.1828
-0.645299,0.28021,-0.4638,0.00813489,0.0748483,1.19771,0.14901,-0.279733,40.2309
-0.645299,0.28021,-0.4638,0.00813489,0.0748483,1.19771,0.14901,0.860604,49.9732
-0.492891,-0.856886,1.00012,0.640127,-0.0122453,0.710039,-0.199021,-0.501465,22.3183
-0.492891,-0.856886,1.00012,0.640127,-0.0122453,0.710039,-0.199021,0.163731,31.3505
-0.412762,-0.856886,0.624132,0.238632,0.133469,-0.29606,0.916326,-0.675683,19.9328
-0.412762,-0.856886,0.624132,0.238632,0.133469,-0.29606,0.916326,-0.279733,30.2335
-0.412762,-0.856886,0.624132,0.238632,0.133469,-0.29606,0.916326,0.860604,44.2988
-0.29836,-0.856886,0.648833,0.274237,-0.112738,-0.206632,1.09302,-0.501465,24.9177
-0.29836,-0.856886,0.648833,0.274237,-0.112738,-0.206632,1.09302,0.163731,38.328
-0.65717,-0.856886,0.721998,-1.04222,0.419873,0.448831,1.62237,-0.675683,13.5413
-0.65717,-0.856886,0.721998,-1.04222,0.419873,0.448831,1.62237,-0.279733,31.6401
-0.65717,-0.856886,0.721998,-1.04222,0.419873,0.448831,1.62237,0.860604,42.9199
-0.656692,-0.856886,0.72231,-1.04081,0.697902,0.397362,1.62487,-0.501465,25.3727
-0.656692,-0.856886,0.72231,-1.04081,0.697902,0.397362,1.62487,0.163731,44.3954
-0.662148,-0.856886,1.10361,-1.05721,0.274159,1.44734,0.323961,-0.675683,19.5191
-0.662148,-0.856886,1.10361,-1.05721,0.274159,1.44734,0.323961,-0.279733,38.5003
-0.662148,-0.856886,1.10361,-1.05721,0.274159,1.44734,0.323961,0.860604,47.8152
-0.473074,-0.856886,1.05421,-0.35635,0.0865724,1.07418,0.0607852,-0.501465,26.7724
-0.473074,-0.856886,1.05421,-0.35635,0.0865724,1.07418,0.0607852,0.163731,42.6992
-0.285245,-0.856886,1.00184,0.322491,-0.0758906,0.713899,-0.197774,-0.675683,17.2231
-0.285245,-0.856886,1.00184,0.322491,-0.0758906,0.713899,-0.197774,-0.279733,29.6544
-0.285245,-0.856886,1.00184,0.322491,-0.0758906,0.713899,-0.197774,0.860604,43.5818
-0.285245,-0.856886,1.00184,0.322491,0.024602,0.713899,-0.197774,-0.501465,24.4281
-0.285245,-0.856886,1.00184,0.322491,0.024602,0.713899,-0.197774,0.163731,36.6388
-0.955285,-0.856886,1.76381,-0.56108,0.227262,1.06389,0.0526741,-0.675683,13.624
-0.955285,-0.856886,1.76381,-0.56108,0.227262,1.06389,0.0526741,-0.279733,27.7721
-0.955285,-0.856886,1.76381,-0.56108,0.227262,1.06389,0.0526741,0.860604,45.3675
-0.948967,-0.332635,1.05968,-0.532033,0.332779,1.11279,0.0882384,-0.501465,21.5048
-0.948967,-0.332635,1.05968,-0.532033,0.332779,1.11279,0.0882384,0.163731,43.499
-1.07495,-0.367306,1.09532,-1.0886,0.774946,1.38815,0.281658,-0.675683,7.39808
-1.07495,-0.367306,1.09532,-1.0886,0.774946,1.38815,0.281658,-0.279733,31.1161
-1.07495,-0.367306,1.09532,-1.0886,0.774946,1.38815,0.281658,0.860604,48.153
0.0879254,-0.856886,0.656493,-0.631822,0.537114,-0.151045,1.14082,-0.501465,34.6737
0.0879254,-0.856886,0.656493,-0.631822,0.537114,-0.151045,1.14082,0.163731,45.0848
-0.0394005,-0.856886,0.67541,-0.982252,0.942434,0.0126281,1.27322,-0.675683,23.1388
-0.0394005,-0.856886,0.67541,-0.982252,0.942434,0.0126281,1.27322,-0.279733,48.284
-0.0394005,-0.856886,0.67541,-0.982252,0.942434,0.0126281,1.27322,0.860604,55.6407
0.139239,-0.856886,0.648051,-0.469724,0.446671,-0.228763,1.06844,-0.501465,35.2322
0.139239,-0.856886,0.648051,-0.469724,0.446671,-0.228763,1.06844,0.163731,48.7184
-0.281032,-0.856886,0.715275,-1.65969,1.02953,0.42567,1.57458,-0.675683,21.0221
-0.281032,-0.856886,0.715275,-1.65969,1.02953,0.42567,1.57458,-0.279733,33.9429
-0.281032,-0.856886,0.715275,-1.65969,1.02953,0.42567,1.57458,0.860604,45.3675
-0.306976,-0.856886,0.696671,-1.09891,1.1049,0.19097,1.44043,-0.501465,28.6822
-0.306976,-0.856886,0.696671,-1.09891,1.1049,0.19097,1.44043,0.163731,42.0305
-0.276246,-0.856886,0.696671,-1.65453,1.33436,0.19097,1.44043,-0.675683,21.7805
-0.276246,-0.856886,0.696671,-1.65453,1.33436,0.19097,1.44043,-0.279733,50.6006
-0.276246,-0.856886,0.696671,-1.65453,1.33436,0.19097,1.44043,0.860604,60.9497
-0.328708,-0.856886,1.1083,-1.79274,0.969232,1.46535,0.340807,-0.501465,42.2166
-0.328708,-0.856886,1.1083,-1.79274,0.969232,1.46535,0.340807,0.163731,60.3223
-0.0583557,-0.856886,1.04999,-1.03472,0.619183,1.03816,0.0489305,-0.675683,23.8007
-0.0583557,-0.856886,1.04999,-1.03472,0.619183,1.03816,0.0489305,-0.279733,51.3315
-0.0583557,-0.856886,1.04999,-1.03472,0.619183,1.03816,0.0489305,0.860604,58.60546
0.15312,-0.856886,0.990424,-0.316997,0.555538,0.641842,-0.251182,-0.501465,36.9904
0.15312,-0.856886,0.990424,-0.316997,0.555538,0.641842,-0.251182,0.163731,51.9589
-0.645491,-0.856886,1.88466,-1.25444,0.66273,1.03687,0.03458,-0.675683,17.5747
-0.645491,-0.856886,1.88466,-1.25444,0.66273,1.03687,0.03458,-0.279733,40.1482
-0.645491,-0.856886,1.88466,-1.25444,0.66273,1.03687,0.03458,0.860604,50.0766
-0.647788,-0.856886,1.87684,-1.26288,0.913961,1.02143,0.0237235,-0.501465,33.7016
-0.647788,-0.856886,1.87684,-1.26288,0.913961,1.02143,0.0237235,0.163731,51.4349
-0.0380602,0.277427,-0.464738,-0.977567,0.835242,1.14238,0.110825,-0.675683,30.4473
-0.0380602,0.277427,-0.464738,-0.977567,0.835242,1.14238,0.110825,-0.279733,63.1422
-0.0380602,0.277427,-0.464738,-0.977567,0.835242,1.14238,0.110825,0.860604,66.9481
-0.602506,-0.223285,1.08798,-1.9122,0.955833,1.32252,0.238232,-0.501465,35.9562
-0.602506,-0.223285,1.08798,-1.9122,0.955833,1.32252,0.238232,0.163731,61.9908
-0.634386,-0.233026,1.05843,-1.21509,0.570612,0.532469,0.0873649,-0.675683,18.016
-0.634386,-0.233026,1.05843,-1.21509,0.570612,0.532469,0.0873649,-0.279733,52.2002
-0.634386,-0.233026,1.05843,-1.21509,0.570612,0.532469,0.0873649,0.860604,56.6336
-0.596571,-0.856886,1.09345,-1.0811,0.85869,1.36113,0.266185,-0.501465,26.0484
-0.596571,-0.856886,1.09345,-1.0811,0.85869,1.36113,0.266185,0.163731,37.2662
0.907885,-0.856886,-0.847132,1.54759,-1.03894,0.393502,-0.139997,-0.675683,16.2785
0.907885,-0.856886,-0.847132,1.54759,-1.03894,0.393502,-0.139997,-0.279733,31.971
0.907885,-0.856886,-0.847132,1.54759,-1.03894,0.393502,-0.139997,0.860604,43.0578
1.85565,-0.856886,0.0752417,-1.85364,-0.720718,1.60947,-1.65441,-0.279733,57.2265
2.14285,-0.856886,0.0908751,0.629352,-1.03894,0.734487,-1.79168,-0.279733,64.0178
2.24816,-0.856886,-0.847132,-0.916663,0.334454,-2.21214,0.354659,-0.279733,41.36856
2.36304,-0.856886,-0.847132,0.160862,0.110021,-0.680922,-0.668595,-0.279733,56.8335
0.994045,-0.856886,1.27902,-1.10406,2.31081,-0.899667,-0.0696173,-0.279733,55.5511
1.61727,-0.27709,-0.847132,0.863597,-0.536481,1.94916,-2.00132,-0.279733,39.376
0.49623,-0.653958,1.70112,-0.682419,1.95908,0.296997,-1.51715,-0.279733,47.2774
1.18551,-0.856886,-0.847132,-0.307627,-1.03894,1.89255,-0.980563,-0.279733,52.3036
2.24816,-0.856886,-0.847132,-0.916663,0.344503,-2.21214,0.354659,-0.279733,41.36856
-1.15996,0.627392,1.06015,0.0203156,0.0329764,-1.91619,1.31552,-0.279733,39.3967
-0.29836,1.23038,0.638046,-1.05721,0.543814,-1.45296,0.329701,-0.279733,67.8651
0.0367078,1.34634,-0.847132,-0.869814,0.233961,0.747354,-1.10535,-0.279733,53.5792
-0.0590259,1.23038,1.02888,-0.916663,0.694552,-1.83898,-0.107053,-0.279733,76.2354
-1.1121,-0.856654,1.39736,-0.831867,-1.03894,0.420523,1.5888,-0.675683,14.3963
-0.987356,0.648264,1.007,-0.0761932,-0.441014,0.442398,-0.334166,-0.675683,20.7256
-1.04145,-0.699066,1.84761,-1.16215,-0.345546,0.42953,1.0335,-0.675683,21.291
-1.09295,0.0174462,1.76365,-0.82156,0.285883,0.442398,-0.043412,-0.675683,15.5201
-0.869508,-0.856886,1.10986,-0.70069,0.615833,1.36499,0.315975,-0.675683,12.5485
-0.647788,-0.856886,1.87684,-1.04737,0.913961,0.909483,-0.0209503,-0.675683,15.6097
-0.285245,-0.856886,1.00184,0.532843,-0.0758906,0.909483,-0.240576,-0.675683,11.9831
-1.1121,0.63319,1.21805,-0.304816,0.314356,0.423097,-0.336662,-0.501465,33.088
-1.0896,0.649424,1.16364,-0.286076,0.265784,0.42953,-0.336662,-0.501465,31.8124
-1.03034,-0.27651,1.86574,-0.786892,0.0447005,0.428244,0.24859,-0.501465,33.0052
-1.02776,0.225825,1.65266,-0.432245,0.59071,0.441111,-0.336662,-0.501465,29.5509
-0.29836,-0.856886,0.648833,0.481309,-0.146235,-0.309056,1.04348,-0.501465,24.6557
-0.827959,-0.856886,0.724343,-0.533907,0.213863,0.322731,1.60003,-0.501465,24.2833
-1.1121,-0.856654,1.39736,-0.831867,-1.03894,0.420523,1.5888,-0.279733,26.2001
-0.987356,0.648264,1.007,-0.0761932,-0.441014,0.442398,-0.334166,-0.279733,39.1622
-1.04145,-0.699066,1.84761,-1.16215,-0.345546,0.42953,1.0335,-0.279733,33.6878
-1.09295,0.0174462,1.76365,-0.82156,0.285883,0.442398,-0.043412,-0.279733,41.4099
-0.869508,-0.856886,1.10986,-0.70069,0.615833,1.36499,0.315975,-0.279733,24.8487
-0.647788,-0.856886,1.87684,-1.04737,0.913961,0.909483,-0.0209503,-0.279733,44.6367
-0.285245,-0.856886,1.00184,0.532843,-0.0758906,0.909483,-0.240576,-0.279733,33.2741
-1.1121,0.63319,1.21805,-0.304816,0.314356,0.423097,-0.336662,0.163731,53.724
-1.0896,0.649424,1.16364,-0.286076,0.265784,0.42953,-0.336662,0.163731,51.7245
-1.03034,-0.27651,1.86574,-0.786892,0.0447005,0.428244,0.24859,0.163731,53.7722
-1.02776,0.225825,1.65266,-0.432245,0.59071,0.441111,-0.336662,0.163731,48.9873
-0.29836,-0.856886,0.648833,0.481309,-0.146235,-0.309056,1.04348,0.163731,39.64487
-0.827959,-0.856886,0.724343,-0.533907,0.213863,0.322731,1.60003,0.163731,43.3887
-1.1121,-0.856654,1.39736,-0.831867,-1.03894,0.420523,1.5888,0.860604,37.9557
-0.987356,0.648264,1.007,-0.0761932,-0.441014,0.442398,-0.334166,0.860604,49.9939
-1.04145,-0.699066,1.84761,-1.16215,-0.345546,0.42953,1.0335,0.860604,37.6799
-1.09295,0.0174462,1.76365,-0.82156,0.285883,0.442398,-0.043412,0.860604,56.8128
-0.869508,-0.856886,1.10986,-0.70069,0.615833,1.36499,0.315975,0.860604,33.5637
-0.647788,-0.856886,1.87684,-1.04737,0.913961,0.909483,-0.0209503,0.860604,52.9587
-0.285245,-0.856886,1.00184,0.532843,-0.0758906,0.909483,-0.240576,0.860604,40.1482
1.57802,-0.578584,0.387911,-0.916663,0.910611,-0.0761566,-0.768425,-0.279733,44.4229
1.57802,-0.578584,0.387911,-0.916663,0.686178,-0.0761566,-0.768425,-0.279733,53.3861
1.57802,-0.578584,0.387911,-0.916663,0.910611,-0.0761566,-0.768425,-0.675683,25.0211
1.57802,-0.578584,0.387911,-0.916663,0.905587,-0.0761566,-0.768425,-0.612331,52.0072
1.57802,-0.578584,0.387911,-0.916663,0.910611,-0.0761566,-0.768425,-0.612331,39.3001
1.57802,-0.578584,0.387911,-0.916663,0.910611,-0.0761566,-0.768425,0.163731,56.144
1.57802,-0.578584,0.387911,-0.916663,0.686178,-0.0761566,-0.768425,0.163731,54.7651
1.01319,-0.624968,0.622413,-1.15091,1.29416,-0.44931,0.891243,-0.279733,46.6844
1.01319,-0.624968,0.622413,-1.15091,1.35948,-0.44931,0.891243,-0.675683,22.7527
1.01319,-0.624968,0.622413,-1.15091,0.905587,-0.44931,0.891243,-0.675683,34.7703
1.01319,-0.624968,0.622413,-1.15091,1.29416,-0.44931,0.891243,-0.612331,45.8984
1.01319,-0.624968,0.622413,-1.15091,1.35948,-0.44931,0.891243,0.163731,56.3371
1.01319,-0.624968,0.622413,-1.15091,0.905587,-0.44931,0.891243,0.163731,61.4599
0.706844,-0.636564,0.669313,-1.7131,1.01278,-0.0761566,1.21569,-0.279733,55.4546
2.00882,-0.555392,1.07578,0.910446,-0.380718,-1.94192,-0.930648,-0.279733,57.916
2.00882,-0.555392,1.07578,1.33209,-0.380718,-1.16988,-0.930648,-0.612331,33.4888
2.00882,-0.555392,1.07578,0.910446,-0.380718,-1.94192,-0.930648,-0.675683,29.549
2.00882,-0.555392,1.07578,0.910446,-0.380718,-1.94192,-0.930648,0.163731,61.8558
1.36741,-0.601776,1.21648,-0.16708,0.381351,-1.16988,-0.294234,-0.675683,32.0114
1.36741,-0.601776,1.21648,-0.16708,0.381351,-1.94192,-0.294234,-0.612331,39.0046
1.36741,-0.601776,1.21648,-0.63557,0.455045,-1.94192,-0.294234,-0.675683,32.1099
1.36741,-0.601776,1.21648,-0.63557,0.455045,-1.94192,-0.294234,0.163731,74.3649
-0.757882,-0.729331,1.35718,1.14469,-0.750866,-0.39784,0.34218,-0.675683,9.84966
-0.757882,-0.729331,1.35718,1.14469,-0.750866,-0.39784,0.34218,0.163731,23.2452
0.0271345,-0.682947,1.35718,-0.120231,-0.124462,-1.68458,0.34218,-0.675683,13.3955
0.0271345,-0.682947,1.35718,-0.120231,-0.124462,-1.68458,0.34218,0.163731,44.5205
0.745137,-0.636564,1.35718,-1.29145,0.788345,-0.39784,0.34218,-0.279733,59.4949
0.745137,-0.636564,1.35718,-1.29145,0.788345,-0.39784,0.34218,-0.675683,23.6392
0.745137,-0.636564,1.35718,-1.29145,0.788345,-0.39784,0.34218,-0.612331,38.6107
0.745137,-0.636564,1.35718,-1.29145,0.788345,-0.39784,0.34218,0.163731,66.7807
0.0750013,-0.856886,-0.847132,0.488805,-1.03894,-0.76842,1.51892,0.702224,32.0682
1.07063,-0.856886,-0.847132,0.488805,-1.03894,-0.415855,0.150008,-0.675683,19.1991
1.07063,-0.856886,-0.847132,0.488805,-1.03894,-0.415855,0.150008,-0.279733,39.6049
1.90352,-0.856886,-0.847132,0.488805,-1.03894,-0.472471,-0.765929,-0.612331,34.5696
1.90352,-0.856886,-0.847132,0.488805,-1.03894,-0.472471,-0.765929,-0.675683,24.4047
-0.250493,-0.856886,-0.847132,0.488805,-1.03894,-1.06952,2.13911,0.702224,21.8591
0.0750013,-0.856886,-0.847132,0.488805,-1.03894,-0.76842,1.51892,-0.612331,14.5969
0.49623,-0.856886,-0.847132,0.488805,-1.03894,-0.536808,0.861294,-0.279733,31.9669
0.0750013,-0.856886,-0.847132,0.488805,-1.03894,-0.76842,1.51892,-0.279733,25.5734
1.07063,-0.856886,-0.847132,0.488805,-1.03894,-0.415855,0.150008,-0.612331,27.7424
-1.17145,1.90526,-0.847132,0.193657,-1.03894,0.870881,-0.49015,-0.612331,9.6175
-0.411326,0.984546,-0.847132,0.193657,-1.03894,0.870881,-0.49015,-0.612331,15.6911
-0.839256,2.50825,-0.847132,0.193657,-1.03894,0.325305,-0.864511,-0.279733,32.6267
-0.0800873,1.25241,-0.847132,0.193657,-1.03894,0.508021,-0.739724,-0.612331,19.7652
-0.577903,0.850033,-0.847132,0.193657,-1.03894,1.05617,-0.365363,-0.279733,25.745
0.970112,-0.856886,-0.847132,0.193657,-1.03894,0.963525,-0.427756,-0.612331,24.0655
-1.17145,1.90526,-0.847132,0.193657,-1.03894,0.870881,-0.49015,-0.279733,21.0662
-0.245707,1.1179,-0.847132,0.193657,-1.03894,0.690738,-0.614937,-0.279733,32.0517
1.10893,-0.856886,-0.847132,0.193657,-1.03894,0.870881,-0.49015,-0.612331,25.4479
0.1401,-0.856886,-0.847132,0.193657,-1.03894,1.52454,-0.0533949,-0.279733,25.2169
-0.577903,0.850033,-0.847132,0.193657,-1.03894,1.05617,-0.365363,-0.612331,13.089
-1.3926,1.50288,-0.847132,0.193657,-1.03894,1.32896,-0.178182,-0.612331,7.50701
0.555585,-0.856886,-0.847132,0.193657,-1.03894,1.23889,-0.240576,-0.612331,21.1793
-0.839256,2.50825,-0.847132,0.193657,-1.03894,0.325305,-0.864511,-0.612331,17.2004
0.0864894,1.38692,-0.847132,0.193657,-1.03894,0.325305,-0.864511,-0.612331,21.8591
-1.06136,0.94628,-0.847132,0.193657,-1.03894,0.690738,-0.614937,-0.279733,25.7264
-0.508974,3.11008,-0.847132,0.193657,-1.03894,-0.220271,-1.23887,-0.612331,21.9171
0.959581,-0.856886,-0.847132,0.193657,-1.03894,1.69439,0.133786,-0.612331,14.541
-0.909141,0.582168,-0.847132,0.193657,-1.03894,1.4216,-0.115788,-0.612331,7.99585
-0.412283,-0.856886,-0.847132,0.193657,-1.03894,1.87711,0.196179,-0.612331,10.3359
0.970112,-0.856886,-0.847132,0.193657,-1.03894,0.963525,-0.427756,-0.279733,37.4379
0.33444,1.58637,-0.847132,0.193657,-1.03894,0.0525169,-1.05169,-0.612331,24.4378
-1.06136,0.94628,-0.847132,0.193657,-1.03894,0.690738,-0.614937,-0.612331,10.7303
0.55367,-0.856886,-0.847132,0.72305,-1.03894,-0.0632893,0.0926059,-0.675683,13.2241
0.55367,-0.856886,-0.847132,0.72305,-1.03894,-0.0632893,0.0926059,-0.501465,27.0412
0.55367,-0.856886,-0.847132,0.72305,-1.03894,-0.0632893,0.0926059,0.702224,35.1702
0.55367,-0.856886,-0.847132,0.72305,-1.03894,-0.0632893,0.0926059,5.05768,38.8933
-0.432387,-0.856886,-0.847132,0.582503,-1.03894,-0.0632893,1.39039,-0.501465,12.838
-0.432387,-0.856886,-0.847132,0.582503,-1.03894,-0.0632893,1.39039,0.702224,21.946
-0.432387,-0.856886,-0.847132,0.535654,-1.03894,-0.0632893,1.39039,5.05768,25.0831
-0.0398791,-0.856886,-0.847132,0.441956,-1.03894,-0.0632893,1.02851,-0.279733,25.9657
-0.0398791,-0.856886,-0.847132,0.441956,-1.03894,-0.0632893,1.02851,0.702224,31.2539
-0.0398791,-0.856886,-0.847132,0.441956,-1.03894,-0.0632893,1.02851,4.97849,33.7016
-0.260067,-0.856886,-0.847132,0.769899,-1.03894,-0.0632893,1.11586,0.702224,26.9447
-0.260067,-0.856886,-0.847132,0.769899,-1.03894,-0.0632893,1.11586,5.05768,29.7854
0.247322,-0.856886,-0.847132,0.535654,-1.03894,-0.0632893,0.479446,5.05768,36.1492
0.247322,-0.856886,-0.847132,0.535654,-1.03894,-0.0632893,0.479446,-0.279733,27.5308
-0.432387,-0.856886,-0.847132,0.535654,-1.03894,-0.0632893,1.39039,-0.612331,9.99051
-0.777029,-0.856886,-0.847132,-0.0733823,-1.03894,1.95689,0.891243,-0.279733,12.2451
-0.537695,-0.856886,-0.847132,-0.0265333,-1.03894,1.80248,0.741499,-0.279733,17.3403
0.419643,-0.856886,-0.847132,0.114014,-1.03894,1.15911,0.117563,-0.279733,30.5714
-0.0590259,-0.856886,-0.847132,0.0671646,-1.03894,1.48079,0.429531,-0.279733,24.4971
0.180308,-0.856886,-0.847132,0.114014,-1.03894,1.31352,0.267308,-0.279733,26.8482
0.898311,-0.856886,-0.847132,0.207711,-1.03894,0.837425,-0.194404,-0.279733,38.2108
1.13765,-0.856886,-0.847132,0.25456,-1.03894,0.67015,-0.356628,-0.612331,30.1439
-0.29836,-0.856886,-0.847132,0.0203156,-1.03894,1.6352,0.579276,-0.279733,20.8704
0.658977,-0.856886,-0.847132,0.207711,-1.03894,0.991834,-0.0446598,-0.279733,34.2945
-0.296446,1.07731,-0.847132,1.02757,-1.03894,0.0602373,-0.991794,0.702224,47.7145
-1.33899,1.60145,-0.847132,1.02757,-1.03894,-0.0143933,-0.312952,-0.279733,29.8922
-1.51801,1.2756,-0.847132,1.02757,-1.03894,-0.189389,0.330949,0.702224,33.1921
-1.71522,0.91729,-0.847132,0.488805,-1.03894,-1.10554,2.10168,-0.675683,4.56502
-1.51801,1.2756,-0.847132,1.02757,-1.03894,-0.189389,0.330949,-0.279733,24.2909
-0.777029,0.685371,-0.847132,0.488805,-1.03894,-0.0967444,0.407069,-0.675683,11.4143
0.231047,1.50288,-0.847132,1.02757,-1.03894,-0.0967444,-1.7792,-0.612331,25.894
-1.58119,1.14921,-0.847132,0.488805,-1.03894,-0.812169,1.47649,0.702224,31.0237
-1.18868,1.87975,-0.847132,0.488805,-1.03894,-0.482765,0.0951017,-0.279733,33.6644
-0.296446,1.07731,-0.847132,1.02757,-1.03894,0.0602373,-0.991794,-0.612331,19.3501
-0.853616,2.48274,-0.847132,0.488805,-1.03894,-0.554822,-0.717262,-0.675683,12.7884
-1.22698,0.325898,-0.847132,0.488805,-1.03894,-1.09268,2.1154,-0.675683,4.78221
0.231047,1.50288,-0.847132,1.02757,-1.03894,-0.0967444,-1.7792,-0.279733,43.377
-1.03551,0.488241,-0.847132,0.488805,-1.03894,-0.336077,1.03849,-0.675683,6.94095
-0.432387,0.963674,-0.847132,0.488805,-1.03894,-0.00409944,-0.305465,-0.675683,13.5654
-1.09486,2.04441,-0.847132,1.02757,-1.03894,0.0345026,-1.01051,-0.612331,15.7483
0.065428,1.36953,-0.847132,0.488805,-1.03894,-0.526514,-0.696048,-0.279733,38.8044
-1.71522,0.91729,-0.847132,0.488805,-1.03894,-1.10554,2.10168,-0.279733,17.2755
-0.93116,0.564774,-0.847132,1.02757,-1.03894,-0.176522,0.329701,-0.279733,24.0462
-0.853616,2.48274,-0.847132,0.488805,-1.03894,-0.554822,-0.717262,0.702224,50.7323
0.231047,1.50288,-0.847132,1.02757,-1.03894,-0.0967444,-1.7792,-0.675683,14.1439
-1.65491,1.02629,-0.847132,1.02757,-1.03894,-0.446736,0.941158,-0.675683,2.33181
0.065428,1.36953,-0.847132,0.488805,-1.03894,-0.526514,-0.696048,-0.612331,23.5235
-0.662148,0.781618,-0.847132,1.02757,-1.03894,0.00619444,-0.294234,0.702224,39.7
-0.432387,0.963674,-0.847132,0.488805,-1.03894,-0.00409944,-0.305465,-0.279733,32.8846
-0.93116,0.564774,-0.847132,1.02757,-1.03894,-0.176522,0.329701,-0.612331,10.7875
-0.743522,2.68335,-0.847132,1.02757,-1.03894,-0.122479,-1.79168,-0.279733,41.6843
-1.41844,1.4623,-0.847132,0.488805,-1.03894,-0.585704,0.818867,-0.675683,6.88373
-0.777029,0.685371,-0.847132,0.488805,-1.03894,-0.0967444,0.407069,-0.612331,17.1659
-0.296446,1.07731,-0.847132,1.02757,-1.03894,0.0602373,-0.991794,-0.675683,9.73126
-1.22698,0.325898,-0.847132,0.488805,-1.03894,-1.09268,2.1154,0.702224,26.3228
-1.58119,1.14921,-0.847132,0.488805,-1.03894,-0.812169,1.47649,-0.675683,6.28044
-0.296446,1.07731,-0.847132,1.02757,-1.03894,0.0602373,-0.991794,-0.279733,36.9642
-0.853616,2.48274,-0.847132,0.488805,-1.03894,-0.554822,-0.717262,-0.612331,21.4806
-1.22698,0.325898,-0.847132,0.488805,-1.03894,-1.09268,2.1154,-0.612331,8.37438
-1.58119,1.14921,-0.847132,0.488805,-1.03894,-0.812169,1.47649,-0.612331,10.0898
-1.51801,1.2756,-0.847132,1.02757,-1.03894,-0.189389,0.330949,-0.612331,10.3546
-0.743522,2.68335,-0.847132,1.02757,-1.03894,-0.122479,-1.79168,0.702224,51.8638
0.276042,-0.856886,-0.847132,0.488805,-1.03894,0.502874,0.704063,-0.612331,17.2438
0.276042,-0.856886,-0.847132,0.488805,-1.03894,0.502874,0.704063,0.702224,35.7631
0.477083,-0.856886,-0.847132,0.488805,-1.03894,0.67015,0.591754,-0.675683,14.3066
0.477083,-0.856886,-0.847132,0.488805,-1.03894,0.67015,0.591754,-0.279733,31.7435
0.477083,-0.856886,-0.847132,0.488805,-1.03894,0.67015,0.591754,1.17736,39.3829
0.649404,-0.856886,-0.847132,0.488805,-1.03894,1.06904,0.44201,-0.612331,9.01145
0.649404,-0.856886,-0.847132,0.488805,-1.03894,1.06904,0.44201,0.702224,40.6584
-0.413241,-0.856886,-0.847132,0.207711,-1.03894,1.87968,0.192436,-0.612331,12.052
0.142015,-0.856886,-0.847132,0.207711,-1.03894,1.50653,-0.0571386,-0.612331,18.9123
0.151588,-0.856886,-0.847132,0.207711,-1.03894,0.86316,-0.493893,-0.612331,30.9575
1.90352,-0.856886,-0.847132,0.488805,-1.03894,-0.475045,-0.656117,0.702224,54.2756
-0.00158565,-0.856886,-0.847132,0.207711,-1.03894,1.68667,0.00525499,-0.612331,14.4997
2.09498,-0.856886,-0.847132,0.863597,-1.03894,1.95689,-2.00382,-0.707359,12.6381
2.09498,-0.856886,-0.847132,0.863597,-1.03894,1.95689,-2.00382,-0.612331,33.2121
2.09498,-0.856886,-0.847132,0.863597,-1.03894,1.95689,-2.00382,-0.279733,44.092
2.47792,-0.856886,-0.847132,-0.401325,-1.03894,1.95689,-2.00382,-0.501465,59.7638
2.47792,-0.856886,-0.847132,-0.401325,-1.03894,1.95689,-2.00382,0.702224,69.6578
2.47792,-0.856886,-0.847132,-0.401325,-1.03894,1.95689,-2.00382,3.55307,74.1669
0.658977,-0.856886,-0.847132,1.00414,-1.03894,0.0139149,0.0177337,-0.501465,22.5321
0.658977,-0.856886,-0.847132,1.00414,-1.03894,0.0139149,0.0177337,0.163731,29.9784
0.658977,-0.856886,-0.847132,1.00414,-1.03894,0.0139149,0.0177337,2.12764,32.7225
0.994045,-0.856886,-0.847132,0.207711,-1.03894,-0.089024,-0.132011,-0.675683,14.6996
0.994045,-0.856886,-0.847132,0.207711,-1.03894,-0.089024,-0.132011,-0.501465,27.9238
0.477083,-0.856886,-0.847132,0.488805,-1.03894,0.0653843,0.641669,2.12764,38.9968
0.649404,-0.856886,-0.847132,0.488805,-1.03894,0.953232,0.404574,-0.675683,14.9892
0.965325,-0.856886,-0.847132,0.207711,-1.03894,0.953232,-0.4315,-0.612331,24.0007
0.965325,-0.856886,-0.847132,0.207711,-1.03894,1.77674,0.130042,-0.612331,11.466
0.55367,-0.856886,-0.847132,0.160862,-1.03894,1.23631,-0.244319,-0.612331,21.16
0.132442,-0.856886,-0.847132,0.160862,-1.03894,1.23631,-0.0571386,-0.612331,14.7962
-0.413241,-0.856886,-0.847132,0.160862,-1.03894,1.86681,0.192436,-0.279733,17.5403
0.142015,-0.856886,-0.847132,0.488805,-1.03894,1.44219,-0.107053,-0.279733,21.6495
0.477083,-0.856886,-0.847132,0.488805,-1.03894,-1.20848,0.641669,-0.675683,13.5206
0.477083,-0.856886,-0.847132,0.488805,-1.03894,0.0653843,0.641669,-0.279733,31.447
0.649404,-0.856886,-0.847132,0.488805,-1.03894,0.953232,0.404574,-0.612331,18.1263
0.649404,-0.856886,-0.847132,0.488805,-1.03894,0.953232,0.404574,0.702224,39.4863
0.649404,-0.856886,-0.847132,0.488805,-1.03894,0.953232,0.404574,4.97849,42.127
0.199455,-0.856886,-0.847132,1.00414,-1.03894,0.0139149,0.541839,2.12764,26.7448
2.09498,-0.856886,-0.847132,0.863597,-1.03894,1.95689,-2.00382,0.702224,47.2222
2.09498,-0.856886,-0.847132,0.863597,-1.03894,1.95689,-2.00382,3.55307,55.15808
-0.279213,-0.856886,-0.847132,0.160862,-1.03894,1.77674,0.130042,-0.612331,13.7137
0.55367,-0.856886,-0.847132,0.160862,-1.03894,1.12051,-0.244319,-0.279733,31.6469
1.07063,-0.856886,-0.847132,0.488805,-1.03894,-0.423575,-0.194404,-0.279733,39.5828
0.965325,-0.856886,-0.847132,0.160862,-1.03894,0.953232,-0.4315,-0.612331,24.0007
-0.279213,-0.856886,-0.847132,0.207711,-1.03894,1.77674,0.130042,-0.612331,11.466
0.276042,-0.856886,-0.847132,0.488805,-1.03894,-0.0375546,0.953637,-0.612331,14.9892
0.276042,-0.856886,-0.847132,0.488805,-1.03894,-0.0375546,0.953637,0.702224,34.6806
0.276042,-0.856886,-0.847132,0.488805,-1.03894,-0.0375546,0.953637,4.97849,38.1142
2.33432,-0.856886,-0.847132,0.348258,-1.03894,1.95689,-2.00382,-0.612331,42.4235
2.33432,-0.856886,-0.847132,0.348258,-1.03894,1.95689,-2.00382,-0.279733,55.9441
2.33432,-0.856886,-0.847132,0.348258,-1.03894,1.95689,-2.00382,3.55307,67.1136
0.390923,-0.856886,-0.847132,1.00414,-1.03894,0.0139149,0.329701,-0.279733,25.1797
0.199455,-0.856886,-0.847132,1.00414,-1.03894,0.0139149,0.541839,-0.279733,21.753
1.90352,-0.856886,-0.847132,0.488805,-1.03894,-0.475045,-0.656117,-0.675683,24.3937
2.3056,-0.856886,-0.847132,-1.66625,-1.03894,-0.989739,1.52766,-0.279733,74.9874
-1.14082,1.34634,1.46662,-0.120231,2.14332,-1.73605,-0.406542,-0.279733,33.7567
-1.28442,0.476645,0.544245,0.957295,0.468444,-1.45296,0.691584,-0.279733,19.9879
0.276042,0.801331,0.888181,-0.63557,2.64578,-0.758126,-1.52963,-0.279733,33.6878
0.218602,0.766543,-0.847132,1.51948,-0.0340187,-1.00261,-0.643638,-0.279733,33.4189
-1.16954,0.870906,0.966348,-0.307627,1.47337,-0.2563,-0.668595,-0.279733,27.6756
0.276042,0.801331,-0.847132,-0.63557,0.635932,-0.758126,0.379616,-0.279733,45.2986
-1.24612,-0.856886,2.02942,-0.682419,0.970907,0.23266,-0.0197024,-0.279733,15.5684
0.161162,0.731755,0.825647,0.910446,-0.0340187,-1.22135,-1.47971,-0.279733,53.524
0.812151,1.31155,-0.847132,0.441956,0.133469,-1.91619,-0.206883,-0.279733,65.907
-0.279213,0.267918,0.34101,0.582503,0.300957,-1.77465,0.591754,-0.279733,33.3982
-1.19826,1.96092,-0.847132,-0.0733823,0.803419,0.631548,-0.943127,-0.279733,37.3627
0.161162,-0.856886,0.825647,0.207711,-0.0340187,-1.20848,0.516882,-0.279733,42.6372
0.0558546,0.54622,0.622413,0.301409,0.468444,-0.8868,-0.968084,-0.279733,41.9408
0.716417,-0.856886,1.37282,0.535654,0.803419,-2.21214,0.0551698,-0.279733,40.8652
0.390923,0.870906,-0.847132,0.207711,0.300957,-0.282034,-0.805861,-0.279733,52.4209
0.314336,-0.856886,0.919448,-0.541872,0.635932,-0.616585,0.117563,-0.279733,38.459
-1.35143,1.04484,1.15395,2.59701,-0.0340187,-1.33716,-1.46723,-0.279733,35.2253
0.161162,-0.856886,0.825647,1.33209,0.803419,-1.19562,-0.369106,-0.279733,31.8745
-1.15996,2.04209,-0.847132,-0.63557,0.970907,0.978966,-1.06791,-0.279733,39.4518
-0.0494525,0.488241,0.559879,-0.0733823,0.468444,-1.32429,-0.0696173,-0.279733,44.2781
-1.26527,0.754947,0.856914,0.535654,-0.0340187,-1.04121,0.0801272,-0.279733,23.6904
-0.193053,0.302706,0.372277,0.910446,0.468444,-1.40149,-0.156968,-0.279733,32.3985
0.304762,-0.856886,0.919448,-0.16708,0.300957,0.374201,-1.05544,-0.279733,36.8042
-1.29399,1.81018,-0.847132,0.957295,-0.536481,-1.87759,1.22817,-0.279733,33.0604
-1.41844,1.57826,-0.847132,0.676201,-0.536481,-0.307769,0.267308,-0.279733,31.0264
-1.23655,-0.856886,0.903815,0.114014,0.300957,0.245527,0.529361,-0.279733,12.1761
-1.35143,0.685371,0.763114,0.863597,0.133469,-0.732392,-0.256798,-0.279733,36.4388
0.180308,-0.856886,1.02888,1.42578,0.635932,-1.22135,-0.568766,-0.279733,23.8352
-1.27484,-0.856886,1.29465,-1.10406,1.64086,0.374201,0.704063,-0.279733,17.954
-1.22698,0.824522,-0.847132,-0.16708,0.300957,0.348466,0.604233,-0.279733,19.0089
-1.17911,-0.856886,2.20139,1.80058,0.803419,-0.964004,-0.755946,-0.279733,8.53571
-0.0781726,-0.856886,0.559879,0.816748,0.803419,-0.539381,-0.14449,-0.279733,32.2399
-1.32271,1.10282,1.38845,0.441956,0.300957,-0.0761566,-1.62946,-0.279733,29.7233
0.304762,1.01006,-0.847132,-0.16708,0.635932,-0.719524,-0.181926,-0.279733,52.4415
0.52495,-0.856886,-0.847132,0.0203156,-0.536481,0.168323,0.541839,-0.279733,44.8642
-1.2557,1.89135,-0.847132,-0.354476,0.970907,1.23631,-1.23014,-0.279733,37.4317
0.477083,1.11442,-0.847132,0.629352,0.300957,-2.08346,0.354659,-0.279733,56.6129
-1.20783,1.26517,-0.847132,0.535654,0.468444,-1.23422,1.17825,-0.279733,23.7869
-0.145186,0.441857,0.512978,-0.16708,0.635932,-0.809596,-0.356628,-0.279733,39.4173
0.304762,0.824522,-0.847132,-2.55638,0.300957,0.348466,0.604233,-0.279733,44.5195
-1.31314,0.720159,0.810014,-0.16708,0.133469,-0.410708,0.00525499,-0.279733,26.1449
-0.0398791,0.499837,0.575512,0.441956,0.133469,-0.346371,-1.34245,-0.279733,43.5749
0.304762,0.824522,-0.847132,-0.16708,0.300957,0.374201,-1.05544,-0.279733,41.0514
0.0750013,0.696967,-0.847132,0.629352,-0.0340187,-0.629453,-0.169447,-0.279733,46.2432
-1.30356,-0.856886,1.95126,0.957295,0.300957,-1.91619,1.19073,-0.279733,10.5352
-1.38972,1.02165,1.12268,-0.448174,0.635932,-0.64232,-0.119532,-0.279733,29.0683
-0.250493,0.29111,0.356644,0.348258,-0.0340187,-0.69379,-0.306713,-0.279733,33.7981
-1.38972,1.41591,0.684946,0.816748,-0.0340187,-1.62024,0.117563,-0.279733,26.9654
-1.14082,1.62464,1.71675,0.957295,0.635932,-1.96766,-1.16774,-0.279733,30.6472
-1.26527,0.91729,2.18576,0.488805,0.300957,-0.487912,-1.87903,-0.279733,24.5798
-1.16954,1.56666,1.66985,0.910446,0.133469,-1.60737,-1.30501,-0.279733,30.8816
-1.2174,1.1608,2.04506,2.17537,0.133469,-1.64597,-2.0163,-0.279733,24.3385
-0.930203,0.140363,2.12322,1.47263,-0.0340187,-0.64232,-1.87903,-0.279733,22.932
-0.423771,0.20646,0.27066,3.06081,-0.0340187,-1.54432,-0.975572,-0.279733,28.6298
-1.20975,1.26981,-0.847132,0.549709,0.485193,0.958379,-0.959349,-0.279733,18.2877
0.142015,-0.856886,0.820957,1.86616,0.719676,-1.97795,0.0601613,-0.279733,31.4201
0.307634,0.824522,-0.847132,-0.143656,0.300957,-1.36032,0.62919,-0.279733,40.9252
-1.22602,0.824522,0.919448,-0.143656,0.300957,0.372914,-1.05918,-0.279733,25.5596
-1.26048,1.87975,-0.847132,-0.270148,1.0714,-1.62281,1.48648,-0.279733,32.9638
-1.22602,0.824522,0.919448,-0.143656,0.300957,-1.36032,0.62919,-0.279733,26.2332
0.434003,-0.856886,1.30872,0.816748,0.769922,-2.21085,0.236111,-0.279733,38.6307
-0.184437,0.424463,0.498908,0.648091,-0.201506,-1.00003,-0.511364,-0.279733,33.7188
-1.249,-0.856886,2.04975,-0.696473,1.57386,1.30708,-1.1927,-0.279733,13.4613
-1.26527,0.506794,0.586456,0.0624797,0.150218,-0.251153,0.0838709,-0.279733,23.5242
-0.203584,0.309663,0.378531,-0.513762,0.702927,-0.478905,-0.133259,-0.279733,49.7733
0.0271345,0.531146,-0.847132,-0.621515,0.166966,-0.0324076,0.257325,-0.279733,40.9349
-1.30548,-0.856886,1.2415,-0.0359031,0.820168,0.0846853,0.473207,-0.279733,13.2021
-1.31601,1.11674,1.22586,0.470065,0.3847,-2.04357,0.395839,-0.279733,29.8709
-1.20975,-0.856886,1.38533,0.549709,0.485193,0.958379,-0.959349,-0.279733,12.4595
-1.40217,-0.856886,1.74333,-0.0640125,0.635932,-0.153361,0.390847,-0.279733,13.2938
0.314336,0.828001,0.922575,-0.124916,0.300957,-1.33587,-1.04046,-0.279733,46.2342
-1.29686,1.14457,-0.847132,0.0156307,-0.469486,0.16575,0.539344,-0.279733,23.7442
-1.27389,-0.856886,1.99972,-0.00779375,1.47337,-1.72446,1.38166,-0.279733,15.5263
0.162119,-0.856886,0.833464,-0.841705,1.1049,-0.253726,0.130042,-0.279733,35.8659
-1.20592,1.2756,1.39158,0.573133,0.501942,-1.20076,-0.936888,-0.279733,28.9911
-1.27676,1.17356,-0.847132,-0.485653,-0.670472,0.348466,0.685345,-0.279733,26.9227
0.30189,-0.856886,-0.847132,-0.162395,0.300957,0.344606,0.606729,-0.279733,25.1038
-1.20975,-0.856886,1.38533,0.549709,0.485193,-1.23164,1.17451,-0.279733,9.73816
-0.0800873,0.361845,0.431684,1.31803,0.468444,-0.8868,-1.17149,-0.279733,37.171
-1.22123,0.815246,0.908505,1.80526,0.65268,-0.639747,-1.44352,-0.279733,16.504
-1.23847,1.20835,1.32123,-0.658994,2.02608,-0.372106,-0.985554,-0.279733,36.3499
-1.31697,-0.856886,1.88716,-1.08532,1.95908,-0.388833,0.885004,-0.279733,15.4236
0.89161,-0.856886,-0.847132,0.404477,0.0832226,0.518315,-0.538817,-0.279733,39.0561
-1.23081,1.91106,-0.847132,0.863597,0.0162276,0.371627,-1.11908,-0.279733,26.8599
0.226261,-0.856886,0.70996,0.676201,0.602434,-0.173948,-0.85328,-0.279733,30.1232
-1.33324,1.07499,1.18053,-0.3779,0.786671,-1.16216,0.146264,-0.279733,44.6119
0.384221,1.04716,-0.847132,0.418532,-0.268501,-1.32429,0.00525499,-0.279733,57.2182
-0.0130737,0.637828,0.722467,-0.429434,0.552188,-1.90203,0.390847,-0.279733,52.827
-1.11593,-0.856886,1.50414,0.00157603,0.920661,0.648275,-0.557535,-0.279733,18.0339
-1.15805,1.32315,1.44161,1.01351,0.853666,-1.85571,-0.797126,-0.279733,35.3143
0.351672,-0.856886,1.1305,1.31803,-0.084265,-1.44653,-0.461449,-0.279733,40.062
0.425387,1.07268,-0.847132,-0.354476,0.451695,-1.17503,0.204914,-0.279733,61.2358
-1.42802,1.53767,1.66829,-0.124916,-0.117762,-1.36418,-0.473927,-0.279733,33.3065
-1.11976,-0.856886,2.28112,-0.0171635,1.0714,-1.59064,0.903722,-0.279733,15.0913
0.385179,-0.856886,1.15239,0.0437401,0.887163,-1.323,0.0763836,-0.279733,37.2655
0.0692573,0.54622,-0.847132,-0.19519,0.133469,-0.836617,0.697823,-0.279733,42.1401
-0.159546,0.430261,0.505162,0.652776,-0.0507674,-1.80553,0.209906,-0.279733,41.5423
-1.10252,2.15457,-0.847132,0.0765343,1.08815,-1.4684,0.664131,-0.279733,37.917
0.392837,-0.856886,0.960095,0.676201,0.702927,-1.99468,0.496916,-0.279733,31.1788
-1.16858,1.30807,-0.847132,-0.279518,0.853666,0.214646,0.191188,-0.279733,32.768
-0.19401,0.308504,0.376967,0.891706,0.401449,-1.39506,-0.150729,-0.279733,32.4012